[
 {
   "device_id": "e5a525311893700f813ec0e3ab6ab3c371236314419b998efba9d12a8df8939a",
   "trial_type": "initialize-microphone",
   "trial_index": 0,
   "time_elapsed": 7138,
   "internal_node_id": "0.0-0.0",
   "rt": "",
   "audiostimulus": "",
   "stimulus": "",
   "response": "",
   "estimated_stimulus_onset": null,
   "accelerometer_data": ""
 },
 {
   "device_id": "",
   "trial_type": "html-audio-response",
   "trial_index": 1,
   "time_elapsed": 41552,
   "internal_node_id": "0.0-1.0",
   "rt": null,
   "audiostimulus": "../standaloneApp/binary_ternary.mp3",
   "stimulus": "<p style=\"font-size:48px;\">Sing</p>",
   "response": "GkXfo59ChoEBQveBAULygQRC84EIQoKEd2VibUKHgQRChYECGFOAZwH/////////FUmpZpkq17GDD0JATYCGQ2hyb21lV0GGQ2hyb21lFlSua7+uvdeBAXPFh5aFxGuzOnyDgQKGhkFfT1BVU2Oik09wdXNIZWFkAQEAAIC7AAAAAADhjbWERzuAAJ+BAWJkgSAfQ7Z1Af/////////ngQCjQQmBAACA+4MCm//+f/ixo27zLMHDM1f0A9uNYSeClj34mresNpGJnc5E95CQOukeWd0eHS9bVvb6nC8lybZCbJzDQlUOe+9KLvSq5uOzm89JpYphSAAAF34QopvsoL3EQ3H7qBhqmMxFB1aoxznciGxchvqNKPdbCx+fvCA3BJZ/cy7tf/6ei4Hii4d0i4ktSPMFTu16nDp3YIuEoCV4S5KvAYYqQFdhGa1ZKyWkn9Cgg8lhW95wolPPzjUksLthIjRs6artPPnMHP79TLbdkS2Y/O0HMA2YDWGP9KjH5BvJ2BmDn5WnzrZhffhAtwqRP6KSLEpMEyH8IHrFDdYlBUag5nH1pN+WFJdBo0GDgQA7gPsDfd8wc4DIQD57lPSJRpZdTbdnU/MIv3yEiuKxp7O2d+gpOadaApxb/xMeECGjCn49gDqQ3ENT7SQ5Fcg0MtBxsyE6w44hSJXJAO+W2leOStwbklXi+MfXX3zIUkOzde3UEQ8QtgAPMQYGdXhGP2F8LzGRmV1ZotACP9nD7LFHKH3t3E2809aSOsWIwJAvsH8cqeUNe+vdSnIISSHPpvnJAaS8nmyjNxIVQWTQbQPMNM93hKvZFZYb2vkrHZJwQxiI7aTU9ECOnxSGxDBQApXN8zZiGecZp4nQ0VBRxLbc36ZCCne2X0mijElNStHZfFfHb9CsHzB+yib05LEyl1993musJvpLJpESQHcIZh0y8n9IiJxpOSi7WkGTdS4WypnEA1jDH/jSMKBdCXUy9qYDsrxB33w4JFMJXvPN02bp080EQGVqDvhBDeUk8AiTDRJEDuKzUIwv2WfuKdTvJSVb6zAIQje2yn+naLJRuCV/oLrl6oU9rEfQ/Sj+0o1yo0GDgQB3gPsDffSELrRGGN7ds4Umf6T7zdsyTHfNo1HNo8JjLn+fNclij/QqH5al553G0mspuJZ71ShslBGUEx2Se4majra6brNOc6q699rvQgFdAzV/jw2smaVsnugIUpmxNtLnKFYnEaAnQ8lwoSG79eHM2mxvW/FPeKYdhKAj9HstptiG633eFb5BXSM4eRCAxDZhYeo6m0Op21eMwn+2Oin/yPIX15doQ/9TP2pwPTuImNTGwolMwgpsWCqp2eqKHTea8sN8KSSuBkeWEOpoDTPVKOYJpRwzC1G8sexunpFFTZ57e4kFsaaZ+W+hSo0JMSKGdjsVS0PsFkg2Xg0u44PmPYN99IXBJBDzKAiglfy1fVTnz9+0gnKSrSfWENgpqtaLRAR+8MnT2Vnc2yxe7HhD7wbPwNlKsfImNFLNNJBN0G48GQA4huYIgif9Auw4ur92G04I8/mOEi7Lu0tGrvS6WguO6JJn8ER/ZgmBr74wN+pozunt/fiibukNh2tp4dNPo0GDgQC0gPsD39IwAtLLW7RcnQneL8zxsvmiRPq8/BudLk76AlD+ua+dhi92ogOet2DqJtBgHI6crNpBmbmm/iQ+XMN8Moi+KZE9UokqWLMvBfDUTohp2vzNX8Bf8pg0KIlPWsuvlzMHObrz6rHUBh6YyVHzWZxrpZFHPcguOF1ntOeSe2EKIH3voVuSUsM4aXNRkusgU0PuqNPer240SHQsllVLIVHj2Fw1o8a2jNqZxw1VXVsWaG8/2aaWw//lphzcLFso4sTMvCF4TYvNIKan5DGkzse2c/3JTY6j04tSalqRje9mL4Qc60N3MbcbVneGNLNdjZtTzXzMpuRBP/LCNIWvtcD1KERYbN+mNzNi5qqzZ3AlUFpEpHUo5iMdNW1mhLP4AhkujU33eH4x8F3ctm0XMf6fi1PG9L9BcEhz0/nFACSqhbzC2CHcTEcjxnVrZQv8RVNZp8Xasclg3cdrL04CW/pkVmxe6J4kOaxZK8ueTHo1qca6fkcSAQ5KaNAbnFl5o0IGgQDwgPuDxm+JcUTPQlny7Z2u/eAx5vtzLoqP+HJOGTx1BfMEIdFEMl98Y2kKVFa9JjenumMKOe1nTL6edrPQnOtUuwVNTOaGWzSffEVc1mIPlOWNZk1W0m8ckUhputIYzrTcuI/3Rcg5A6zObfNkXWVTYyoSMQQMqgDQxLxFqibD/aoLFVJp7y5tXAkkrdHB7l3n/Gpjn0FKN0lxk/T/eNn5QNqAC+6c0ODZwUh0OUcOkOTnaWVZj+uYl7wjF+qKsweiUgo0fFu6O5caeb5eTZP7/SKbZOVrqa/Gu7ksStFGhRamd8DFuGGLd/B/2cD06ObBtTLnYMqj+QA5eMz58gWKXGFK+Cd33Cy/VtyPYWmn9tZ9ys8DX/kX0b/4u2pxY2Cbt6oSv0mxi2RvLfGA5Yn5PfP6jeL/GZvwJ3J9d7cKlm9gsW72E5tG10V1+veqR06cO4ZV2rOd+jYg5Gm0Bmf4X8Xdpt4axHdC15rbvw4+csBnOP+Hp8q/0ARMim7pFtaMDVaF0B6efmiK7ihSqZehBwQAVraf/nQWmdrJWiO//V577B9YVlyFBNxcB6anDrl4IIpGFLOSPtRveZGGVvWhtT/nVfgFEDWjvFqKA1BimjMIDb2YgLxiIai0LrJ8yFv3byV3TXbKQj1QI4mPtGge0Z1bvvX/rt5RhktgmH+/Yg8ajEGjQMWBASyA+4NYY331LXokvpGMo3WyKNQ8KZivJWCAa0SWWQyzxTSD4/TuJZmSqntJ84+HC4E/6dNWE0T/jCizl3j0cbJyOPyE49o1j/ADDGRdVkpcPa0x0pYnmS8HqxdUNrl97i157J2mRnqS7HBTNGcqIek3sZrulMjIgG6f34L5c9+le4/Iz7S3AOp7c7B7NQln0K4ff/EAduJkZdVAiLdyE0A/iYc4X3THsl0t9D4JTPnXHOQhYMn+Flj8P2m5wj3TBtr//qOMgQFogPsD//7//v/+o4yBAaSA+wP//v/+//6jjIEB4ID7A//+//7//qOMgQIcgPsD//7//v/+o4yBAliA+wP//v/+//6jjIEClID7A//+//7//qOMgQLQgPsD//7//v/+o0FEgQMMgPuDAn///n3h3XugHm9RexqLIVK79SiJPzIEjSR1QIsu9e58YYUBb/lOW/K2UURK6FOJA1wtFAq6SqeoCNrz7p0tQ9SuikM0EBvrvYr+lWLHd88mHxDwzSm7TYYTdZncuw3Z2plkdZnf8xRe972eIP/xqQwSW5CMjGoaeZ26gA+/9DuKjXp9dkYgg3LokaMI4QbDyrsPxDem2bWLnO7NfrjnxsP68XXN6Cl16eFLIWOGRCO2cl/HXom49gZmhfKmxu/v9PiCvLDsPE1cEaZlXnUPMZGkhXIDk0jxgydtksPdSnDBDokxjYmmBLXHof0X/HliAKpBmC1gh0bs3DmowQW4LEDG8wpfUF2PZP7g8f8k9SuvTi6jIHnI5OxQ4YL0Xpdqo6pqAfpCt1Hdwewo9YCBRXgIGVc6d/aBbc4iK1Oko4yBA0iA+wP//v/+//6jQIuBA4SA+4MCf//+f/qdAXEnLmwmAFazmAVee4KxZj5BQbTyIne162+KFPXg8ZE4EZWIFB9Kx0XJDXrZmMl5OOmSPYvpp3zXDVnizk5fJSgyDanyz+e/E53kqZo0BoTtTal6JhNZEgMAR55ZYeAka56HIokGxqQkCnud3geC/30GaDRBm/6Hn7gUdP/+o4yBA8CA+wP//v/+//6jjIED/ID7A//+//7//qOMgQQ4gPsD//7//v/+o4yBBHSA+wP//v/+//6jjIEEsID7A//+//7//qOMgQTsgPsD//7//v/+o4yBBSiA+wP//v/+//6jQWiBBWOA+4MCyP/+fW0T5ulHEQfP0xMDjKYXBSezW9ijGw0rhgX3Xx8S+MiyEi1SzjaY2P8inxJcb3khA6aKBtS1MmoX62t6obZFWbaijAiQnjy7ez5wcAjLDbXEYJ3ZUGgsNXOjfB/47pb7Ixuqf23zFE9gevm7B6RQNvHAB9ssct6JUDt5VZy/5JZkcU7KcOqQPztfhNHHQIktUxwmzkStgy5em4Tnvt7p/iFxkx9AT1c+cdN7+pnucfasrkbRsdCcwBhvmRCRP1QAiSHLb0ZU/Y8T4dgGhyYRUDIG46z6dymReT1fmTB3AG+7QVlfWNJ/olIeVaOBmV3ck9aoWcwa1JmBQXdu8UbcEI1sA+1aeq9bXAqz0/b2hB5v8wE7Fv5hcHwsCQfUU9KSQee+alcoaglzxi7xnkupQjqqy4jbrTM+wrh6YZFIX2PGg9fZkBz5PMWknXulzO1JmWmqa8gxFCuqic/hoSKjQaeBBaCA+4Ogf3+63iecc53xgqzzSkXAcym6At4HUPiKv1IquwFCzJVUEMlYYNwHw8dwFxFO2eX9+Tr5IYtBf8MaW2J9Tk4dFLNLnkunf0npGO0z3ESe5W2tEzLcSrkP1g+xIPYb1Nfv/Q6Hq5eEEyHuPNyMWyTIyd+9lTM+LxMNwfH3hbnMLBBZ2vkSeXV7S4XU5xPBxcCEaATYmI3C7tXiH4EmQDZHYYZ98Af37wV7K9MoIsW05Fgniexp3pLNgwEP5pyswlqsxAOiPF+oMghYHKa5aroyY9MaSnJSb+T+l5FgYfezMoYJfzCYqthzyZknbkR7tM0rSMZaAEXpY37xU2xb75rT44mIkA2DgEUn3nScAHiaDA1g0sfTP6C8wCB30WtATqNw33tJblbS1/amtnPyi/ieXKQo5gK9Qjp4yoFmdIZjLOROoJzDTrh7hasPbw0HRB2DP8TLsRcIrynZ8HkAWNeY5izZBpllAr6VMFKGEjxn1pwvDdY0+WPKIDxw7V07gPPyuZX4NpdM/tEVHZfE1E634bgokv2PCxxCQAlVw6GHM7ajQYaBBdyA+4N/gHq8gNmkfSB1xbOr27LBwNNk2rwDngfvZYXE1vxrurUO9Oeibo+jGm+9rJIYbNM2F0PWiPapYW8wRNCqzDWTYOdwB5jO/3OXNbMiqNrQIA7x2cEzewq6Kx0mjQfKUlc0TiynvX1BlJqGdogWD6dM93DEcGjMi6sewqxO3vX8HatC1svVT5bDW5Z72qCnjtUSpyhY4qM8teu7439FjN1ZRPS/DQ2CWkfi72LPiacGijWS+b+pUl183/w4wreMWpQZps4tHKjBaL1MDA5fmEHiVv2M3qQPQjJRsVGSAi3YpqfVA19s+fAgY/nlPeyHod8PuNQOUHI3y77aqQVJ+KcNpXupEmKkBibEFRD5+OkIgyPJmCKxuGnfcrSt2CHzKvuyCo/A5EA3v1I5EfKhacb7IaCDBwNFEvqUgz1XEjwo0oLgUJs+W/CBNjiJwSqSlILWymkixzDvJHfxdBvzQYyOO/GUxzORycZygYqhrN1MSGzjvEFxl3FE5wOpPZqcagajQYeBBhiA+4OAf3/dhZpYrlEIEQ581UpI0/EH8EaN/CJKaJXFm2F7U2POWFJg7NrsSHkrrQogaDWUTBq3hKkJT+B/7qNigPz1p9Pl730tKFHlENzDXjMymZTAdwiFYHx9tn5W36OOcKpnV4MvLl/7kSewBN6xgLjHIOPeIGQdG4H4ePeCJ9eyOAJIeLNaCBW2pkcc76BjaOOfTt4HFqtQ6xbgnrcr1f7Iu+sNeKZX/YoJpv2xIdrBLezV2ZeroSFZ6NE02iWCOESyJUrMkneKXRz11gKN9cIBN9oHQI7V9xTllnUWdhFEW2mMUeptB8UpdhRgQJHHQjhes8GzowQPZqGix+/RMZywn31xH5boNyTyr7OW4JnQLGY6w0uqL/rmw0fGyqUGGej1JH/g6qMT0jp/gfvgBYPdTIu4Bp+7UvEv4kSdqkFNyIQ1PIG+O/WwQew1Uf5qS7DXT+t+uzIa+BgjwaOtF3pg82cVp+bA8Zhonkbk29Zp6IXG/tgne5Ws3n9sTM3HUXlqo0CLgQZUgPuDfwJ9eyN3C6HeLAFx+9EBMRVIGXld1LzJ0NFLd8PiXtMQxS05igwe2qs4zK9+jcMkfT+WFBJOw9CF1LX48CyvGzoeSscV1ElHrhNiuoTPnk8uX9ELP7474qiVUyfzjuhdbCW8STRyguRszfeY9EIdyeOiiS41b8JhGlq4jKYv7SRU//7//qNA2YEGkID7gwIC//7//nukSL9oIdHpro4k7HKk3qdE5WL/5BgDY2VG6Hbvdy0b58ZANS4NS/mPXAI6pika+YgZilNYp5FkXpRxFXkmWje9RorQZv7m+jzSzzrGjIQGi8gUOlXWpMUglqtqpKnEZN93NdBYFhb6bCQpfdAMpxXR94nt+ePX8d3xI4C7fT5ZzXjx8UBXDWAswR8skw7BWWjY6D51JcZTIT0nmlMiflCs6o7w3QXs7zIxw73MCuaQT25Z1wDg59INSN1ABT8NQAQ5is7pG2qHoTY9FSyjQbiBBsyA+4Orhn5AVzD1WIeybpfyz4j4MgmrydqBxUpqZVTG+XURC6OzvW9uedmrCU6QbrdVv0NCRQI99CO8UApo4A+ghBZsk8vz3USA9X4FgtqcNBjAHDfezQiq4gGzWH/+xH/bmQcKiupZNrYCqhhJmZtajJuVcceTzkjq+BZdAcZhPt3V94G9fHoyuDuHbRqLFOOGMNePI6ty5IwqxDdDAzMQOEgaTfgGclaXaIyaKGwC7nRGx3GIpYRxo3ykgb2EvsK8Sajqdhuz5j+n0lEMs5Vr6DvRRx7hqWvZKKSw5WBtcoXCb0SVtd0hPfwTP2hMhUsLnA15GMGGGiikyxZlpq5CAFgu+Iu1/H/w9ADWUOTBaQ/03QdfksAfM0g0F2RfnaQmpmcA/oY5w7dX5H6iFyWg/h7H4X+sdYTarHONb1mif4JQrSVvyM+qPdEEz3O0MwuuPHOxvzuI48fJZXp4JfgwcRf71Xj3Nb2rqylIyysFsMTFuDngWOt8WnRrK8cC75kGCyfPpUfJJg32RNtnTNdzqCH3FHJh8eYvLpU/P+jawzR1ezwBEgMUOP6vj4IgWNJte+3QwaNBh4EHCID7g4B/fxekOFk+QQDgrWis6mRxk/pf2tlWX4B/3sFHsIzhQdoZ0gW8A3kBOIF4JmA9C1XSt4YRthhOXWqT1H9UqepAGmwun59d1WmkJBL+A8W4KkvU4a9lV2INl+aXr9xGS5pkQfqVjy3FNVTKuj+nq5AbKdDEBwM60dj4d8NlTaUce218pC3EEX3Dp6q80IntuLPxx+Koym44ck3BLknOefJ3oFHLWQy1k3m31T226fh7fLkJmp1N5W3p3eFQlR6Xe/gARoEbRIzYEzHQ7lDuMUEL+7T8oX6727advvlMqKTf6E1S3JmhLv41N4DoagJrjUfoZ45/yF5cb6ZRbU/ppvb4BC0NIvwC9MxGL0B3B7GcH/gP6TWMbpNVMUBRQPJIuWeMzEWBfcWzYCDfNfh4HQyRwKutnz1XOSag76yTLDKXkopIwQhiVayxLqPRXfPo9YJOcaiA/xKu01ytmm5fy5va+Ls2KoXDw37p7Vd9lcljBWGLR8Zhk9QLaamGZ32arRKjQYaBB0SA+4N/gH2queOHYGwJpunAenc+/HtGuayggeD76p5Q1PAB8Zywy0ckiRdjPwJFocuw/AMaqGu3oL4CIUWaSJPH17N4vYBcOa3VYc0B8QhuA+OQB4LYcRx8VkfAgvAzcYjWtW4u0bZcnN5KtsTdPYv3fEqKF5CNlGlWukaL4CU7qMxeUAqJeeGtxxX4N1fHL/lK2lzF9xL5HO+xYOUa+SO8FEXeUS3UP3207nuSGdPZ+ZdB1gH3VwtiKxMa6dXJ6K97gA1DZ3/ZMbBUr819CQoZaFJEXqLLGloiz7Qk/16UdINU/k88Md6CL3C4rsfe/Kk37ExeZSxe0zoYMSN567KAvnAfzrRPIuKzaRF2FMrqq49C/3DGDE+cmBsPp3btAgmJlFg3YI+RIFZCTpqPja1DuLnmExsdsfebpZZYTptLMH1RatDhHbShfkzLRSLZyHS185ax66y/pd5xb//UwIcF+M9zO1Imyrt7DR4UlT8Ing++XivA8aDwdN3mBwl0dqi07wmjQYeBB4CA+4OAf32tAbe7DW7FAku2JfVOh8EriLUg/++8mVdfYOdFmn2yUGdSUU/tR7i0+ejzMnjY2fj0H8wWbiqzdgQQY1fXzS6LiD1AeoAAOIfDVVZdoWrHsZjK8nZbzSoSlq0+ygkFhqUpcH+PYXCdqx23TkWdxJ+NVzc8MSWYjVfgnHdx2z+xfTBJYy/Oq5v29Ml2IixC71W9I7TC7VAuHbpItcwLIFUktIms02AoVkmKIMn6hxAclwp1wbsJbbjcmJGg7fzNTlk0EUsznhS6y7C7u5jsaPLpx+010/8H6mIE1gX06ogXBhypqVNPnR0O+8wQZa6TG0795hpxRrbs/0Ni3Sx9CmsjMSydQzbEZDtwbnZ6SSqEtXX6Uoy5upVWtZdfF55lMKxIXG8g97FRsltkfk19UWPEbkaZvmRFQ1PIxaKey8hTuJ7s+5J55LCyjOr8ThjRbijtq/OzdPfWP3zTOr+WapdfJS8FmJrZa3MhpvT0xEMUMB4gG9HsaSE5JEYA5HTjo0F9gQe8gPuDaGadqkPvmuqPnKHnG4jHXURZcFQG7m4ZQ92yQPoUPq0gL0MWr0IsBVNTGKGfD/fLc17G+ybTyxg4nPtZOAukqM56/nfd1qeAH28KTR/vHHdkzkBVW5OdRINOJAL4pGnCxMs+f3LKYSQEhmBvqsaVRUd3qRZ0agUBBisbc133uhn/rb45KQHF8/bWkt2z59Vr0FTmDUyzdxBQKRqe+k1igO4DtVE0WntnPyEC5mOghqw8DQ1kiL7QyB9yfffuvbHes5NUNr0Y5zb5CkqQtEdRJ3m7KhTpusZwNX+hm3guMFwgIvEusCsL2wowE5dP5u7gIgFFIy7KJnTVNklSyONcMCGpG1EUsRqAC2pgaebtIS8fXJrCPPprT4yuYcp+8/F+hpQrrm4nlzc/DJqtMo0DyLW0iRfh6hn0gkNrwDI6EeDsLbh+D18PcvoPjORbqwDYDme0Bcp1uicsEi1Q2ka4hxT3IZOsc9WLt8R5ROZaa8Y93X9b0z/qo0F2gQf4gPuDiX+KaxABB9PzFMrvuOOuQ3+lPDCJh1Qi0z9/ObZoD8ycDAkttCI02v6Hd3RAbo4hKj3aFcJXTRmUtWaW2xQWP1jgPHzac4HV/yhp+etb5AueXEK5LavhoA59q6QE17dJL0xWfaSrkJjrQihVZPZFSld/8AgmqamMUUOp9XZe2MV+DQ0Jzq6ulh3ZULUUwbMUgWLEZnUTDeU5GzDPQzQCmDGnKkWu+tIqPOXauPTqLDZBQVabt3ynpFu8SRfDalvD1BFiCjp7jl0qgxiz35Evj3UdKsM5P6cVXtJ46A+Zd0j1BVN6AbNkhesSErySQ2ATjlyYBxesIVPJem4vhQczWtLDRe7REg47o0CICSCh41K9onWegufyYoAbGqgdb9crQtgxxL2IK3nMQoRcpGhs77F2r9nVTbI6RbCZZMY+bcdZ/qPtgGXXhSU5F6gtG6r5oq7XZihK/2nUu6tQqviBEGG1w067I8gh5CAjMhc4i22jQQaBCDSA+4OZY7VR+BwL/Yb4uulfnwt2SOz1Cg8O0ovjqA1l2YIgd9FV7KEICsQzuXgYz07c4GG/GqljkNw5aw4oelzZ20Pcl4MOq4NgfOB3nBS/5S3zKSk+Szesi3q8VfCjXMjE9TfKZMuSP+OVlXPe/pe8UVIKywSNstO8PUK/+T5+2FnAq3eFtrRcKfwOfladlIgWJi/8PhxH9ab6VGlPRX30yqcR9DdR54vf6jh2reXmg4Ynz6xjJjaaKuwuBczQXqNBwfj0RN7LYtHxir+sysT0nwExEF2WTR9C9f/S5u6Z4DEDjsmoAaYLbGf12PFtfv5MAAP+AAAOPAA9wZkz6hosHf/+o4yBCG+A+wP//v/+//6jQcuBCKuA+4OMpH/ytt6pxTLtDsCO4CFpbzWVDV6ExFlfbHLhpITSvQv7kqHQTvuZKZ95TkoyHIVlbpx3XvBnF7WdO9EeKXlOueaKS1osAAAAAAAAn11nR46H4IVHlvhSJHxJGLuw0o7siV3yNFdml+0wuNHM2I9MZyaUFTjSOKX/3+cdT/B/6KKOaAMvGAGG8HbpTd4Oin8DYlVBCT28zUDHkoMrePNF/fEMfgTEICyCee/5kq6fMQ0RhQRBLRftsyL0Otr+DrbxNgfuufxbsjORp1NTXVtR7a2dj/stbDdbwyCMvS4OExWHnUevrvw+xiFj4gZmFg9wNwWIquegX8Xga1pQDXX/otz8bosqr+XnTnbtDlX/iLBCukM7b8OIcaeS47IQkO/3Mqah9JlOPZF5XlkgJvAg58B2+0AgIwBaH63bpX9+TH39qRL/ijNiaz3YHs18CWXuoyZ0MM9r5OboLRSre4GLXv3HxhJ5R2ZQDrB0uQFZbHwqLBTHxTljD7MyHFoM002ne7ue2lEi+sUyOCyshwBKvIhhj1ebebro9sXNoliT+6d3Cmy3AVQ+1NQc7kh7vnSmvZtErs+EJVVmx4YEE1Myy8ublzCjQcGBCOiA+4O5gXyWUUloUmoij6zk6eY3FDaD+R8GYaAxGkJ4gWrYUoIYy1q24dCQShyhGIDdMqOkYb9BnskKoSlQy0C2uslyPY9/fNT+5gs9CuMGdD1J+qYzk5etq9utE7WoAW3yFf9VlCxygymJQy3TBnkSJXwi8PBXwbMZDLONrP7tPsMpQ/PYrMdzzi/wa43661F//dV2Vv4m7T2GRxNqLTsf6sp6RJ549TTQ9+n67KPkOQMrCxKjmCHwTnXFsz7CdRD3FG92KgBWll9mlInssevhw1rCzxLAA26fW7nduhgS+bvKLjd7mAtXrBu+XizMN+HkpVWgEewLnhU2sNlb6zPdFnOsHJ/e5N5eFOkVtXgJJTUB44GPrFnnrNqLm0vC/ivFXejl/EAF/K4ZwFVal1MwmGS7s9Q+BDYajeaUI0ndWiE09CkLEGQIuihD7QUlC4u4qoOtTn6hgzrRD25O3OuJRtsZVujBUdk6KgY9dNXHlX9/oyoZeMyrVsTw7ss0Flmj5wlwHENCQ05CgVj0M46HY4YpV+ya0boBlcotWhrUe566N21titWaQcaDfheWkshGgtq1rq7WKMb3DD7LDqNBh4EJJID7g4B/f1wcAn22uewPUFVu1dINrc5ZdUclJx6IoVSsr/yrqNi6rdSgQ4ir70yUDVgwgKusye5QVMRTOGiSqO0OFV1Mt041JqLm4s9pSMPsSBhPwF/YproFlcSx2Lbru8uhgxWnYITUp8ATjjXleiOKYjXN0ZaCXYed8qqXTc2mFBFZSCZ8Td+yJU3VcrFszYr7l36vVxkRH+XsIOxozkvu7b7UwUw1hsAnKOSN7Q0iA0e0bCSKGDxnHFAX+CQVObda8jt/DSvX2lAzUhhs/Xmsp6cvAnlam1/ucE9CPq70NPHgV4h8Lk577KHpt4duAdgJgT/EU2OODSXKlM+b9XBj6mtWfHMploMnynaYLVRo5UuFedgz5sC/+Z7qSPAEu/kLnrqYwD2dQBzhKN7d236mg9G7G3i5unZODRcaPdqX8GGNIzB1PQiYAuD8AnB7adjmWvAgH7sq/wEyHEXq6TV0yqswqbvw2+/PSFu2b/dtOzruHe/A3eeY4TW6PyCCTvqAuGOjQYaBCV+A+4N/gHyDH4OkbnjMQRjZmO0k+rDOXdPkTvOFvwq8cUhZBswLy5kPOXxnIzjCwcQ8LhuF5UAKPWO4WRsbdrk3ivuRx4BRPxfOoQ1N9EbLmOzRf0P9uXrYdy8x2fSkHmDhKz4nfSKs2phclEU17CiAg55omMzJucOSA2syYdgfj4xl0uZ8OAHbCWQ7u4mX2F95bx1H3ivyixEdyVi9Y62H5veUKTWzClYVp84PDbJr1qtN/yWMeCb75o1pUV8r/pTQqXDl4JXsKkcSIVKc67p88tfd2r18MoNJQOPUADw+rJ9a+wkFPXbwXQP+cdMQA5fb1kZ5ujT2jm6wo9bciHYOnLjz7HrZBZCvwucQvVgeE8l3lKqK6Ov3FWWv1f6NrPg1sAsJN6lhWf70pQEg2Z6KyiQtn/2/m2llVIILsUZJQOqfIHtYOuupxAIZE46IWd8/53azdEPi6bLYIZBIYuwFcpVtSSRbfEkngVBxs0odfLpIMSwRdjBUULwbVNZz5OFT37qjQWmBCZyA+4OAf3sSJnNLblZqysnKbYc9Map5az7b7Gg/iuddcYrFRgcK3RddPLVAKTzZ6KKRLwzHDzyX/IYxeZtDe/7P9prQeeBQHfT7wtRMj/l65LQP9RlJXP0kXQTZpkfJ3bwTrX8+EDxd11bmlZlGdVqGVMqKacUhbQtARe+v81xTExRigQgPigBQU+4A04rSAwvxaO8kmslNjH3FCd+LVytZB3tltbQDE26j3lYPHUyDrE1V/DixrI0aGa+c4Lsd3vfvNP7ig5EZgB2M/Ml67Ng/aIlXq2h8VbLkeA82JVhznWBOpgCfKTAZCzLiADuBNmhvA43voU79oWWCFNaIjtnVA0iNUltEzSMvLS55W/3aJNSzZidVxYUwA3laidfpeNKDv0L/Iynqjh96yvTbd1WuIL/RQph/drFD+eRgdXQhtKpzK/6bY5eW4g8Tu2s4hnwa/2SbQ9kdXNbnj1ZfiZt6EJ0UpYfVo0ErgQnXgPuDX2JT1o7Zs+QFZ6LPF5d5iEuANxbdmrZDC1WdPIpXwNvgqo8SgEUy5MSd+EuMncQKlzn9aRmufSUEsFFMHMuUFnncErdwdohECHOPLrCBFmajkFIhh1tEOu33acUjEqvXIYbed5g/Obbq2wZNb1taNMFz/nd0TYrACNejTATlbp8Zdzdy5heampcvPFEeelu03IRmpVajRHE919iIdAFRFDOYJaclPxP8JBXsqHnDGszHgIxlSlfbHRGQ0bujcsBYp2IwnNoCt6Lwab638iDMjvonFGBl4laXGxH83P0Wr3GlD1smUGTh1OYT9Koh0u2/JBchshOJ26qYrECmbEVK+dnrqo2LZq9e68g2oLlWbMSnJNp2/aKBTaLJJnm/RdadsSfuh3ujQdCBChOA+4N5upzbPYAcqDH7hk6IqoSiChjnZ5fcpdjtliw3F/9egEVy2MkWHE+dasnorADGzXA0riGhZaCo0aH+/flCFxrUfy9htXYSdUrMXZEYl9f/PM4t+M9m0rYMWGnh9uWxRhq0zGhWsEJqMcLjlnqPjJNhIO/Uwq7fbMD8DzaKVS23hX2OCG7G8Y+0QVelrjnMrLd8dbdCFiO9a8VEyQq930j5nn01voOS3RLOxbVSnX/a6vnEyDW2+SBlbwJaB3gJCnystsaAe3xdy/4in2PgeaQf6JxtDFNWKMed5ufJYMC5MZ9KVzaZ7Senm3BpewPtksIygVjx3XggiqCl9sa6IfxOc8T5v4js5OHuQdBVfmEZzNQ/190MVRXqIG0wOOqs1/OKe6QLEVETpUK4beewygKdFqtRKkCKdQTEhv7+nOlEv9stvX3khYgZHLVuGxZKKHo6W20xTI/SU9Zndr7BNX5oOvhLIHbYvKHpAM9j4dxUaErm0mLfO5wadC4mZEfK7TkchtR1MbdyxWMbW7AooX8E5uEfhTaw4krqjRxpo5iY5y6wfbWWFnaHon9OQnRBNAKBaBB8xRQHvb9WAfcfnX/KjFvGS9cIpvpv4KNBmYEKT4D7g5Fiiqe6Z2nqjHiUmcHrbXhN15j3xVW8XD41Sb2FAwmfaohW2TnJZV2wG/KcYZRF5D6/KprxstXf6R/4PRrmkNLe9HoAiGXnUttuEm3CTbhIfC6DVWqsVpuTmqm94vt8lmc4dNLhl2Xhz+xTwRmAesFzCUmAMASv5n7nKaHHgAG3HnaIwWeoIu4/bLLFIsNwZ1uLYLKRKbTFldc2AUi19sbj1UXaYDlE3+olcCGZFVfyW00e4AEQT6DAV5hFXSuhXkLiIBWxFkYRsF7jU5aYE3F1Yr0dSoIMV1Dy3TNZEBfmwcUjZOkbYUo4MEKjBu+/N1w7irWFimsPRjd+5QC44ST7xfwsifJptJGVZtLLpr+hil1CS7GSCOUm6aVS+pMYuYgEVePZW/Z5T4Qb9ba2w5PH6hICZ6YXnWrhYgWE6RCaTCaI9Mc2tpFquIVJtJ7EFlSV0aC59Mak7rUTc52bEsn0jaGbhNXxMiweokHHaAvGP/HDBAH8XvzYyoffAZtwIICM3riHCwyQAI0D2TbjQUScaKGjjIEKi4D7A//+//7//qNBhoEKx4D7g6xifnnoOBRSxeY+QERYTFZGlNrT4qDWcgdq/MorgaxUKTAQVREUUG39vxw/W/jgPETve66XX6k8AHb2bEYHxPm0kToXiT900Ry5jFxJTH/qE/3KrtfzvsB1yAjths/FQhZpiH+FW7CMWZ2PqCjMvMfRnUMFd1rPMeLBSuM3pg9AwF+8Z7llhK0+x6z/lF3mTWb0VOQWdr1eq0baUg82iCB1OFYUnwD3EI6Nm7zsaSUM2k8i8QvnnQC/cLH41K/xMKBXxKJLNKT+OtyTLbIMpErWtppAKsQspQiXBY2/q8mInFRodHuiZKqFBFsAAUuEnZ2Kdtm4dropGDNX7iuzEbyyj/NftOxmq/2ZnDjA2IJFXdb1G7ca4Gr+2wMQbB3c3zv6l/iYQ/KrpEQp5vTPU1psrJuCJiN/vRdGGUDgSz7f0USY8VkYD30vjwlW2HN17r/duu116iYvqVnNAC0VoOVjyXOo8kouBxL8BgZoMP5HiT5arJiT6kfyePPmheoWVKNCBoELBID7g9GXf047ni86GB37nefPoUffg1D0UXBm50udjWBUo/iGGUrbZzsB5X9GuwC5jsJxMbbs147QzJlHV6QyzD55uBQ3FBR+EaOj1j1xd2bpZZfsEVREQVgboLBPY1ZTwQwqgNTO6EccVUcZ7hYOgp1dIC7yvjxLe/ixQRrF9F3elkXEGZ1bDueMbZBj1U7HmtDJv41m4bMAcgY4VE8VVYJx1jJ3nWJPy4muKaGSnZB5X9qZgQSgBgGHrbe74pSdIrEd8fRZMBL5f9siR5Oqorhdu+ag42IAahpe+E6dXUUFYNs6geBpPm3KM+0nUqGxa5ZdR50z5jPoZ43qqyGzDMRqbJa+sHVHdxK0XqBvny7BaLpDymTa6k8jXjI1uM4AEm4KnoS0JhhkMsASUyHiXGxWmHTkV7jJxZdzi80sSAGY9zocdEU1AAYgxjrz1K2a2l6UZdfim7I0PdN8MUTnjAwInGG45xdqcZn1wTA/fJc6kVgOUmnIO3NDSxJ1mwE6dt/ryv7Hd88w7hX8qEfOVHaEEJj4VMVBsXsBtRDORQis1ysZnxrgaV222+pQzZ+Y8CZk7q4PtKiFguJVOLeyoaWPcXVgR7iH5/sneWkKnFD8NGaxvrbhlxnj9aiRYiokbD5Lqbsg77dOWYBSP5uBwJ0Nk7JhktXqxOOPurkAN/wxPBaOo0GGgQtAgPuDf4A1Rgj7pNeKWWLOGW1l0R2/8CfNNC8zHPmif2qBhXVxbRdq0EpywB/qT4hL8nkrUK3P3oK5q48cXeUM6ffhhjQ3zZyXFkT8uix3OYF728CTAwLhCOMxO0ONVcm+Tat0sIVdLfOE1n5zsH0KknLlLYf5ceuop+5Xo4pb++v2mo2Kekytk6p/a01WYycSVBWevdb5eRfbzIA7d/2TIPMJfPjgtjb8CF3aKpiTRI8aG/Yi2N3toHjYjsg/sLxII/0VyhYAdUg31Zz2lkADW1KKxzwPr1lgHsAAHxrLCd9idc5SKQ7m68YltTiwS2GTeb/feqf+orwgH9BlexE6OSPlr/WFqsqf3u/j3Jz7ANGMwgcu/L4V/tC+U0g840y4XQZesM4Kzxi1IZqQwsQOrrMwUYcEIP+hFgVSYSGOla8Ft6yxgjiXvaqpCRyy3xn5D7ulTcrWNlnz1wBBcYWJuiZJ8g+B1Bbhj5JS1d49pDOmNDB4HZ5JCcF1pw+sIQGbEjTgo0E+gQt8gPuDZGpBbPjGxEZy+2DUYw70tWrfqhnKUYx7aYcqfU2VI4pHm1A1a+W5lZ73p8vUJxId+bF+x/WzN4bAztXyy6tW5rStTP+BHIVZ9rLV/ygabrzV5uIDSmwC1Ai4SGu5pxh7qCC7VDaGEp94fNb2dFtlFZtq5On07BVMvlA+vEr+x8jpNdVDAUuENlDMSea+qWtsBSHchD5wpE/2VksdMXffR1EcVKB5lPTY8mifaozarOSbafTv+EWXKTJRaesG5T1JeHJB2JqBlKdsploYPHuHlwJTbczMFdqVF/LVq25UO4dEOR8VoQvn/8MnmZwrAMb0aGfF3veqmBVGmjJCss22l2wkx9QthcKBmdWo9TEq2ZVV2abRPHreTPGZQwSyi5ED/FlFFNar4UQuy41YXO7aSXBAyyIBBv6ko0FQgQu4gPuDY25B6aHIYLxSkoNKW1y2/W0i79umL8gy3TnhnbwPfpYyLGuveSrlozKlzubuQ5O3NtAPVCspYU9/3bf0605zAS47ZUuLxVYIBhfYASxLB0jQEvL6WW+COOPBrZhRocijCRKf3g1DIrVZ+2vjxWbjfAH3jGWYUW/Ccdlda7mslUlPrblsQFQWuR4yJUcFeqe9a+/g7/BVz7x3MobYEzHIdATz1ud/bMt40VrqSc3AaZZ3aKiQUnQ1rkOqpnI8ZmmSbrjfjN2c8GQHZ0vvpY/OOQb5HgMKkC/rhEX++FwmzifCwD5H756xoBHkF4ohqho4UEcTr6I0LIl2th87NJRKmC3SswqL+2fvZ9BlSCITvFUurRkEEezPhNxxWt6kJ08I/AFgTrxqkB8BaxijoFwdrATDvD7vSuBUU7IhrzKxA4hdGekw4CPO1hvVo0GGgQv0gPuDkHBxhzkQtXZynErqaewm6IHpT87y9yr9YbLfCNyMu5cA90cTKv37sqwp1Fh6Oatu+3XFij9mdEc2AI0cdI5s7H6zxknSZX4oO6L10Oqc82xHO8SyNxkFTmFLkAvTwLhtb0Vndos2MX0643i/MppB53H/5qSuWBMyoTBjk4m2kIaamCE3A/hQDql0XIAFuaHXH+cYLuo/fXiDlcDt+BJgWKQ+95GVR/W6IO2hXGLn9DIIofWYstmHv2kjZbSoC/DgSO+wGiaayHNPOCybi3f2rwOO5OfZ/HLYle3oP7pkYEkRE6sdKd9TawpnXO7ZtZDIaKYrBslfxZvh7laEfZysKp8pE77rIPzu5HFpx+WCvvPl8WL/XjyTSQ+JaLgAAqb/xKGRN7agp4j+CtkmBbaQK7Re8j1474bhlPq4ZOYcUrD/IgjQRn0AtixANJ+cdu8rAlu7JCFqpN+YWSBoWnc8sjzI4T2/I18692AD2cif6zeJQxfmP/IlXQsALk9K8DWio0GDgQwwgPsDGwKF/n5QqMActnXZC7GJEkfChRfz1MNC/o4O7j9rw+KPb3soT7BC6MgIMiQh0EWUfzIZtRejOxg24pnsaZ+SM0NsHU6oFawi8/BhegZwkQmG39NOnMUmPjQ4eIlLoe+epbEYIMdrSWvGfUlHUrW+LPt2hs02jiUi1UQ90a6+ET+ImaE8hwA+j9hHKhXdBeGQF84wU/Ue8t1VdildezBLDOQpLCzMHHOKXzA7VUsNH6MZQSraQgfBXjwWvl2QjxzgtfQ48FwYTP/82tAc+Vt0jMuSJGonyBAe976WQ+GVAK2uIq8YdnnjG7tqTYBtx+vwQc55wIVn7OvCf5jj/qFSpaZZ44QkbV2J8sxcfGQwf9rbkRxDTnJYqbJ9dG6w6f859N0hpYz+sqyn0vs0+uRlXmOtgZ4/Kw/VbjYjFMFx8isxjYS45kCGrZee46nLBc4a+pM4B73ss+CX4gVVAQi9SVLQeDLrGpGLRc8xZktzh05HAQ3okdWBiPUq5arfo0GkgQxsgPuDf38i8GNmJRrW+j8lAKtD8gh0uyZgZ0kDUJCNjL3EhSYqjt4Wr5gfURvCcBtwH07kml98WOptzRdzDGS5yhnwBKfCxSu+z3iYN6M7KZct8fJ1V4MUovYFRj1fxrYYEIiMREgx1CJNKskWN8T/X5K5TzjbJjoeinmyHOi/gIk6CQGbWjvY4IfvFsleWwYxeG6xEe1wM3yN6g4V0Zpj7F3KG4GkceDiW9bfbfi+Tl5FtkX6lJjeLEqRr+krGT3iNM8PgoRW2XEc6xuVyJsR/DsOP2DaodUPIAZmp2H0E9iuGfniOIjGmm2O+1ZW7KENEF4A40R/3oRL51YrLdVIdQTiLH18C/R+S4APid3FC9fkc+NzIsRDLfmXAKrJYQZTea5KeLPBLz7uOuZ3vFRcxOzGdWTX4dZ9cwbDVY9XkQukHx0Mn4jikWbrACLhYkjVSTlZ0mgg9ptEyjRF9wVGF9VL9YMPUpgR8sKKzPw1pIqsLCDSVwa+FduKyV83DVITQdMTiFC3O5ztNDYAV7++LcaiAtUD2iGmeRJEKRIa5kPVo0FYgQyngPuDpqh9w0KioexytNLxQ8d0pHufpsQ1GI3JYqcj2fSasFmneNgwQNU4ExsRhggYJIRaVDan7Vg0+c0OVPbp1f4CFVCEoOg+32g6OTXbXWMHFTjwii9Iwzkjn4LiLlhqKfqOyM1jhVgfL2ho6OXayi2s5DQ0PfrbxNzHqOkbRdNzPE3Uk9t7y8bQ4jAvMG6agTUecC/92ZjZg3wRG57QRcZhMuDkMxG3Gq6Tf+1d0NCqT6wuNhh27ilKXCmGEYb5uDdCqPlNF+xxsCaSfdANyjGuBZ/aPubKrsOoIAJuxa1LbxTqhUuER9lYKlN9ccVplZAWy2RiwsQvTVIWPrA1SVR6l4gIRlZxdMROT86ZzwjMNCpWB4uK7I/TAkPRGpXr6+Vh/PgJFpxkkkc/Qqudb9PajP/skz1pTeeDM4yK2rzrr7B3j6C+8dmviWYfTbzLAlxS//6jQU+BDOSA+4MCpP/+f/amLLo1uuL+O5yMMo50KDnglytEq9SzqSczHyUs4n0xL7xwwh2LNRr2fhF0SAlF87DZf8RrvkLotozAGbWa5q2aQvjpaT12fc84DRMx+sc3WzjJMrZ/lSlOulaWIIGL1WygVq+PScmO0+s+FpuhuK3u1VjwoeMm7F/7dhg6uaT55YTwHPzxLp1GuHy2XjQKHKuXrYo6L0lCLNjf4yN+kskWQb193VKgtOrTnwt6ihEG7P5S41gCKdKjCSC908y1eQNTUcYTD0rb/T2Q9PWvVBC7cJ2K45MtPM7GkqH4jlbxIZvvPc67fmSLUaZZLgZU7kAYKMDrz38D/9pLwLsY271NxoFVmW9kLc1j1xDp7kbvJNvZ0qsxzU2AtcmWAA4o0C8ZbY5SAdByfwVqsygXsA4CvKss9NX2Bh/6gBB5QvAkYoFAJqNBwIENIID7g7l/fH+58gb3K5JYsRuD60YY9m03SmqtFoLVLJSrqsRI5i6wpLvZ9fWnq5wQKI2Lc6UPL3Z7lztA5pGw78G9pNrfCRiLifU1exFBGX6ZkqXehkaQyRZ93zBEYWNQKUYqdGghusD4bPBwc27gUxL26f4VDYOyUfRswrQcTZ8laaZgJcb3TuXcYdDNsvzw/xAvFtEOMS8DBhcc618JSX7D4g41ClJlgIozBfog+6TxBEZsf8OffWqQZxdoo617DMKN4TwbeQMWWjLIA080o8XbJeNxiTj36mxcHbbKgpSNHsHafUuG3B/r3QvrUckorAl5Tzj1eJS0hl+e7wLCuhRe9liHzINJ163thS6nUdRSby2hH/DuzqiGCkXxiAuAS7sNrFoxThAIPETjTcvi8kj6/wi0U2VcerKTPCBNdd70am+meUthiArKQk4BS5u2gPCfJ76sKAAEshdu5/3NEIDn2CfCcNY+0tvR8H5ViS5kOkMWMkbQYIOYZPgWLQTZ0jRPn815SK6WOEH6wKL2nb/8wE16CPK8QX06MxmlmAnRr+1yVo/+swLFhitEIxLupgvibVDwwugcxudwAmKjQUaBDVyA+4N/YHCcL4MI6AX8zhOVk1TEgaZOM1KydVLXxanJ7e0HycN8TwHFppcVu9vs8HeEV5WqloZ/OeSHrt0gtB52Q/FPGmMe5OkD9hrysBh6XLs63NYFeZpwPaQ7uH7cTt+eal4hUuHe2H34sAIKU1YDgKxxKYtinDottJU2bUdP0/Fc5FFAY8lHGaMlY1052z9gRG2wOAyTz4SUVCxfxmMUbttSHlnLcc/rRgxwxZ9NFZnIr72lUYG+CVYZ481yklTFnmnTQLFQIi1IfU4z6zWZjUPO1mXYo6FMtUmtYXTUK/8YUns/QvHRODk319tgg31j3Dtnb3F3mE6UxvzbyGHtMrJE4+VRo5kkTQEsEh+swSgomvCG6OphHTV37HRk9OHdQnpem8E7/WH1h7b+bCm7WzzrlVhQ9VYXb1yKwBedykDZw6NBR4ENmID7g2JgB3uWsFdCUj5NEgZYU7XyyP2bUvwXLLkmrD80ISQ2Dt5/0aoDfvYqegO1XtE+7EmqR4jNy0i0DhqNhiPcD844kkSLrctqQ913tDfL5NElP2SjEsNrnOT3RfRJNrhusjtWVWg+LZMJA+7OZX3ViVL1X+B/1i2dCW7s8+wtnvwvBpLFSQ0dXmq5kjCF/4NYy1I+V+So/hbMA0m7s57IRZMgvaESO4H8bB9WYrtUr9bCxNuaGoYfEtjOlMKq9saOZgz1LBccRYEESQQcaY1Tl5d/MDkpHgDfrnS8+HM0RyqXTf4+JwIBdRKh7w0JJJbo7N4n+dGagr1BifGJr/Zr3L0kfFOTwWoQlhx0xZ3cja5GQsNLru/1hFUMy8+MY27MkU/OItSG5UYO/pl9Hl6455kxpVvLQ86SnfiV6y5pl4vPYKNBg4EN5oD7AwOti6ES/OsZzo79cMhvn7x5c/jwDXMQI6jhg8hn15smAwKCPLVkXFsNz86ziCp2us1d7KQ2mJdCb38/gNJudh0kla9JNiG73bVkXGdR2EatLTwS19Itvq5S+kJZe7hxYwE7d1qFBUKoG0FiS8wuA9kQmAnf7niXw0ilMgLlafQQ4UiN7amHh/uC/JQIOERGvOwlpSLdoNvSRdHdoHMLt2NGtRr7WnujQyK7fR2EUM7y6uVHFXm2McwlYtKxlWaHoHsO6yMhXmrjuzg9295u2qvO2oXk2ccj0UQ4wRg5UpL7BklYcpcCcBgMIzkPks6GS+NC8Y3C924CKh4x2cKsCIrg/NCndizobmF2/FxxOFRbiHGnf9tTPIvcZl5PLRWeD2H0X74kh2Z9GcfHkxcy6zxNZGyEGdIYJmI+YGknV/gDhsZtaD7DnS3GnmTKvYCB50quMLPyj7Qb0vbSh0Dw8ugorQIHwy42b2KACMOCeCQTr8OqoxJDNgPl6DbbCKNBg4EOEID7AwL2LjRZJE2LZKUxGiRH+l/PR18OhklTOd2h56VrJE/S3dAhfATpDv6ArsaJrI0MR6ffi4LEAu+psxce+sW1gk3jjpeXlwFfju4ReH1iogJMaD+Idg0yLfAp37ADI5m4izVwqFOcsFF2PXhanpSwsBWNhjmvoRmH8qdceLrW1axSJaroto31oeEQkIKrA519ow7uPJUxgWW1OWbfuterAFpBpsfgfcxEoALjr4jpAyKPtFqsCfMr34tsKznBpxzPA2xCnCHF53rH2gG8AiCiMLkdltXOVdmbissSiQAbwxzBSZcUJy6O27vgME6MwubwqnNRqZIkUI9OdUKJoxEcU9WcTT7VFC3Kt6AVThqNHOM8m/smCruyXviOI09TxjdJKoFs7/3SmzyW4Fb9+aanbdFYA/qgLjND/cbymWp5TVnXOH3bAqUtW6K4bXZd2Tl2uJ38Yppd0tKjts1ja0SdOLSx0Emrt8/T7+6bhZ6rqWDGhBHvt7GFOoPXIIo1/qNBkYEOTID7g39/UeDg1ofGvYN9YgeX66/mw7FrX1j1DPKXyKdvfdGZXEoIPquZ1hYkqLppwYokBA5xiiOLMCiUF61GiodJvQdYUBsYkVkSUrCsQwjTSzjLOsZWmHvtz7fHntjmQjB7+jdWKJVVb1yzf/PpfxE4sm8/VvWsTZkWcMl/Lc1vNoa/GyLG3YKuCzXBYS1zohzzuMBFx2RpsI5yXfth2VuAuAAZHTVId2tncb5e37ATqRRQ2UEalIexBWNjhx9cBhCmb1mdCMyhkWlguFBb+sAy744fKgKvIzAZiEO87YOwEO2Ui0lJ+/6pzPS5qqGRZr6mthNGHbN7RQkPxWcdBGvE3NF9tj0CAnJ+Hia9IomvYjxTm8sLKqQp/RT5Jsj/K28cw37x0n1etF1YuH7VQ0zWKkXXFNuA2ILtrnMECNWqS4MXXaYJwonWqlyjZlN0ew0PQcqYItQxuultU+ZmFSuRAoC1sQn9QPtGpji+MOFbPjVteoAHpielkppF5s9z1mbEy0Vb1d+aAKmgAKb3o0GygQ6IgPuDqFJ9adrhZb1BWAwKXuyOkQox0GPeumRo1GNQZ61HCHiSnAgmLDjQFXriovdQKqokVaAh+Gj4iEiSP7PhnE3slWwZlRFPzFbEFqVG5FwTaTXruDWVee4j4YqBR3bFWmn0cQoV7rUbvPnV8rmXFYUt9rUCbHBTcs90EyebnwEXdxpDnG0m1TddpE00vA2fIEItlC5ws9MosLDmFffFBOKfFp29QhxHPvkyxKR94gPVpvXUwE6GRQVOevU6kub5+SaJoBLVQAmH2rz5v99Zw8Lm0QjE+A5lrx660vQOLFM5HdSpWdO39NSGaHq6jvY7PRwUJA9MZe9bjV3uSQRQ9SZD7c/hyTjoIvTJ1gQodzjIJbIZurep8BJIL5d5tqFGcxacCpSmhBXUn5SFlTLV2HQlDkbN8y1yYVZyezxVj/Cpnuev3K7MLhjHhaphwjODcJ+RCVKOg96Q3fBJmTjjM65+RUiR3OPBeO0rYeIG7bE7VBX0N4cN2GOjw8TswIri9jpPM4kb16wpgLMbwKO70/QR+i7uZVtMb+l48l0C+mrpo6fvp+tM7wbOIV7FpS+jQU+BDsWA+4NNe3/6a2gfewg1GPACFxYEACnUQQSOMwEjaiIaDpL5lBOgLnhjNBoQJkcPM56SnIrY+hRRyR+VcdrTmb+uhKBa8SsABi6gAAgEAfgBc9sFffkUejexi1znR+pXAgKBohHbpKI8DWM51ERlAHF02IrToDVA7BwGL0eOC5qgSQTpjVaDHRQAyMTADAAAAAAAGZorEWoGBCoREUGhZdIiHKScnZnLXyMzlSIDA1NCAIuCBYW1ELWGBGAPFXHfv9vt7/v846n9OBpPcxmub60BuONNRb4+z7jHZnYWRxx6F5AiWSuUOgSXKoMkuVVElAUJg6wWPprjmcbmJ1TDzH/XeLSeIeYw1O1qxljTc2DTtVIRbr9G6EUMAxcLddB5RfsJQijLCVqdipPa3oAlwtwCNzrGQ+9XTRBZ3U/0zbh8jQ+DsUO5YtXuClK5AKNAo4EO/4D7g5cCfe+B2RD7L+uT0Pp4qjyiOYLaHjfsOekcyJ4Rakps9Zu/J8wvAmKE6RgGlY7KS2RuwO/bReJGBXjB6xHY4zMPXg+5beKHB9cikPUYAAKTEFMnzXbK3tDEaffOGh3lRDOE4zgjYPZHuO63rAkszpBIeHifKpy1oqweoDlXtywSwfP8z+zC+gDBjBc84MAAZ0AAGFC/Geg4OP/+//6jjIEPO4D7A//+//7//qOMgQ96gPsD//7//v/+o4yBD7OA+wP//v/+//6jjIEP8ID7A//+//7//qOMgRAsgPsD//7//v/+o4yBEGiA+wP//v/+//6jjIEQpID7A//+//7//qNBCYEQ4ID7g5Vqfe+NoMEoHpLBE8SBrNOVFsUFiFOPWYsIXsgXMSUPKt8VGULBpqUTxbaN2oFRdkv6Ad+mYRlL0dLhkRKJ34hurphiEYW53hFjJeNncCHCPhSlmmlg5O97aEELJHBV3QFumRASdRmP9+qZNK4ZMKxgbfClDGNxe/W+GxSj/4EzZM+/vNz0sMTB2sxfWYQQdf7g9/78W/F9+TBKEpTfe7WLcqkFADEyb45SaJABuDUyiwwhKViuEcyxIY52MF2RdLPwj3v+Tv8x1H/2IiTHoPM8yeQIrr+nNqBhSFR6UtsKNHf+xbBAAAENPUAU7fXY8EBo5kAeBxAAAAAAZDZq1XzA//6jjIERHID7A//+//7//qOMgRFYgPsD//7//v/+o4yBEZOA+wP//v/+//6jjIER0ID7A//+//7//qOMgRILgPsD//7//v/+o4yBEkeA+wP//v/+//6jjIESg4D7A//+//7//qNBCYESwID7gwKA//5/+QKIzFNjbEMoSJCCM/paD8CUFrpAa1T+9h5ylKz9ut3Yhl+CcPh9Oaf+Zl2bY9mXwdvmASQOvnB71boCF2L4f5GsNeyZmB5/riCGmCmN7d71vmRVMLhU7yClkFALaCMyTC3wf0G4aOziqoMQFNS+0/bPs5IgZqRS2S66etWbc3/70+Y+TMQ6Tg/K01/FeZ1bWppYLUPgDlVeED64x0+o9fw5W/cklsUsNVW1EROMrqrcpRHgJP4SKwAAAAAACim+DDr3ZGV7KHAptHQcGMcs+62jU2zAwjP0+A+BtcfT+8BkG9PEyusRldYyAeggAAACAHeIAAZ+AA6LAao4wNGjjIES+4D7A//+//7//qOMgRM3gPsD//7//v/+o4yBE3OA+wP//v/+//6jjIETsID7A//+//7//qOMgRPsgPsD//7//v/+o4yBFCiA+wP//v/+//6jjIEUZID7A//+//7//qOMgRSggPsD//7//v/+o4yBFNuA+wP//v/+//6jjIEVGID7A//+//7//qOMgRVUgPsD//7//v/+o4yBFZCA+wP//v/+//6jjIEVzID7A//+//7//qOMgRYIgPsD//7//v/+o4yBFkOA+wP//v/+//6jQIuBFn+A+4MCAv/+//7f/eG7tyvjd+N60X5io8NYoYaT9gqrMUANAzjNX+9O68jpmhccBjP9MgZy9uzH5EGwLvC833fAQ/FJDRs/3hWDAEMqiW78DDWtugGseGq6j7jsGOWeR0746NFRZNcmL6m8FudkHUUOHQSfSB10/HQlKJDpQhEQwKvbg+nYKlQPo0CLgRa7gPuDfwJ/+8n7ZN/bmuHvS3HZnoMx0hcsclzp1uNwAqJf9HkC/6nMrbbsbodWQxeY9Ehw+jG5HBQ6eZC/i6v6FPop1SfD//x7LJt5RJ9C2DJ+qWWHvdxaJBw/3aP0fPM/vXKv1fJ1FBWt7lBlaSaw1P0OsDnECGk3OAAA4gD3d9vLHiQ+//7//qOMgRb3gPsD//7//v/+o0CLgRczgPuDfwJv6Jkw0lGL5wvnvetmZsUqVMYOYq4u6NaOXK5BCzI2RhGe8/MhhqbduoB5XPCrFOjL+PuJaM8iZwubthR/Zd559pR/Alk+1vs/OIFb/d0AdB3Sx7xooNnMPkj/tsbSfi0xLJvQgqlAYycrClfFiceJt0T2MvVom/frYfdCsfEI//7//qNBhoEXcID7g7BqfXpSi/+Q1W3OzmMWqFyekvc2/gZKvLLekO9jDnpKEgm4yG9yIC7TlmaaNnYdzL6AvjkhdMkVusvfKK1AKh8ygxGjBJk7QT762Iszw3YTkERDEqu2zcFv9QbT0YrOsNICI/JFXk1WK9aCrkgQ97DPqXVPuBLeBgIs4qwGwArIXngq3nF5UzGqo5v76S1DEy386Wuh/1D2v0qoSstt+MSUv369IbRCD8uD+27wRDjTy6ZgSBDjn85Lh2lxd9MiQx00X/hseufyAvp55EDbVH4IWH8y1LBXcHO8LrtKzGJ7pty2tWwGQTVmd8BKnSMPhBUjq4dqhI6jYvlJBEx/ZJPKoYgNvjPTau5B1JkiSwlX2B6nponPBrYddlZmfe5SBR/0Ek6A+DRKXyZIAFZVF1Mv3n2VGyHCe5dTpAl3soWSAVpmKoULOSNYTBMOF2CRZoAlW0YOztqlojumuMDlvowhPb2qCL0hG6/hOOFJrieWG0EdAAPl1A0IGCz1v9+zlaOMgResgPsD//7//v/+o4yBF+eA+wP//v/+//6jjIEYI4D7A//+//7//qOMgRhfgPsD//7//v/+o0CogRibgPuDAgL//v/+f+8Lvbc8kUsKqzZODU6ixRtsetukYdT5AdqvIo5D6SeHi42etrza6xuR+VczDog5emBu1mKY6x5UohANlR8V4nYJijACbr7yNzmkupwm8hjXdEii3x4FiXhgfqr/vqUrozmiKk5M7MZquub0nxVLs5aUbK+mNHFGie5ffDwXyXhC0WUkYYtM7DnmcLi3/f6n6noQsIm0d8ojiGPDo0HpgRjXgPuDv5l+BIFrOMmJes2f3GfjAi4fjaMT1pwn7CCeL6rMaXIYaaJKq7B26Wd+bLwtEwCNCspInPeA5HXXRULzDX5gepzAx7bGzAFE9K6TcoP/i+ae6gEK5uvpLZ68XyNathyIBZzuOFg/C6fCjcCUT0uFegUkJumSiy1bsmFI9lzravODSDcQoOPwytIdGofy11Y6KzjuZp6weYaP3VRRNt5ndfiZEOFSWclccwQRMm99P1/AVmhxG8SbIjfmDF6dWOg14T9eOPCSealy7LugJq10zLLy9DO4no7N5Ommr93kX7A+EXQLxPxjpQnmzjtlExsJn2ueJZTpYwk5gX0Bwxx5sivrFeLqoH03pQiwBFfCfqm/d8IyD4JLPVsnkAO27Mx/yHFcPjCwPJuACc8xlVMsEakdJQ7Pnio4ywEzGBmoMhKiFXRjgdasrxi1t8rhae7rmbCc9+aO2N5ctHNpfLnCoPkSQ2Yx+aFCHRgXEKx5jJkU6nkOGkxgWIuIZ3oZIg7Cx6bpDFZB4/Is/cZXTk1RCSDD4lwJoPoo8Y1EJ+cGWpj5xAIsSkgDzMTovaTciK+b0f6iMvk2ZFnw6foIs+RJoWa6Og7piTeC2loKHJUFUhfwvTJI8jhwN6Fd3QsuspwwLxBTo0GHgRkTgPuDgH9xBn+qchH5AZUssEVUQTa7mcFkj50Rg+OehTp99+bSDBulGUnV/uPXKPhIfNKhjCizg2oxbx5GCdc2iHdgm7D4j0aYP60nEKs3ujv0LQ8fh6DnRV/gv6pL4rD57zpA/I/MbYS+2KxyD6f8EvqJIxudrd8oIKoctbvI5CuC/dbc/FqQ2MTidP6xdE9SEdveG2GtSMHqQvA97+g9SnaS38uiFlRuwThcLOOqwZgIMZ0AKaGpBgLOESHVPtiqYBiN4IB6IruTtnFy4NoLviFfE3RP9yI/WWml59u9cI9tWOhOOWrF/s2wL2ynmKqGpL6UvLdMtJ9wACemUPyod3I3gqdZZKRhvxrFt0GuQKHEVN/F2qelPpbE874qt5eFdSHtnfay+ILKJFLB1SQHERAqQsfMTaCyiyZJEKHUSwzcu1Z9hPxU44fUc28gnfDQ8dNDk+QDXF9lAGCmwFWKUc3xlfAjvUS9+QHAeZRCw88+GXSqEF+oI3XkS6M1NeLPZxjqXKNBhoEZUID7g3aJT9SKAtrFcsTuIiMtswnQq2/rnDTZ+rHQPp0KIAPErWcXIg7ewqZ+aXALZ5k3zeSK4+t0XgrY4LsESNAvA/Uq1ub1+pEl1+MAsQrAf3dgbs/9fHEh3fc//3DOoPNE40K3JEA4uc0WrReFLeTJUiOvWhXj8S+0Xh99LPJJB8tcGrSCZ21NXHtu35NmKoFst7WAgTNYd6HODqw/+howMGUvcJwF+AmOWn01htH+hEK9ysJOiDfsFpBvuT2qNI5BcoX90aHvh6eL7jwJDklwHNuDkVGJ3JOdB9RfQum0B/cKo780COEs7MxjRfhcps6S+qHr5Uzro2LipJBJJZQ1QBtVQXr1RSNhW6Uh4bQeNz+0M3sw/diy5N8sBheQnf+iuRP7mR/GgUpUMt7Ci9Hd9Z8aTx531pAdcLo6uoPKCkaeUTl8r9nnpr4jiJ28GcbOQ+1xP1D7JQlpnjEqOTqZHnXqnMKpcIgJMSwISPL2iRgeJj0V2FCkaojZgFY1auwDS6NBfoEZjID7g4B/I2Worham2VPJ9mABP/EubywGctPtIMbCNXl0urdtOkfARSML8dgh34C4uicqv5ynFnm4B7aF4rnPeNL/NfwKtWJFY//X61Zu/6J+1qwCIcwHiScsSEp2/+guoYSh6ZOTfX2VUY2xDuvriZ9VSG036EOtcWs4JRQeHSG7/gRviZhxthco2oeUxgBAFKHlOu+7jlNj18srV7Gsqmu8PEMglptkKj/E95A8VlkXPhPhOFU5oB4EFnh6Di/xwOaAfEOBdAYh7Rf7DjCeBzTlTXtHLEgJDxh9DL/AeTxEhwfkv1/7H3HAeQDkCN6bNatYtGTlWMrYvbHs99TQW/o223dFbRyGWQ9WSOyKHKjOO5wMV/Wng4XeQTrcnwxDlVxVIuoEODnZCTd+19ZNgkR14BCL9XM2ZgV6SpxjG4ZCAdhNWnFe3oXhKXuCvN6mMkaN1TS04sDJVJEFR1bW6WoFY/TvmAB0Gn2YCvQyXoBEnG7XG8pI6rWiU36jQVeBGciA+4Nwcz9NtLNR9G+5BDqM1TOvXohYCLj2awGtyh2NtNnUexMbF0sb83vtVxGlXJXeQq2PA4Sft/JxESzFSuhQIHQ5eEqJrcd17hjf3m7L5NiYYuxLKN/xh/he/mW6FkWPMeSxWNN3egamc8wWcBpZbRsagB0ix2FhFRe8XJkFdIHAUlcKMQm6oqBPGz9Wr436Iq+qLZ5cFayOJowXJIRDOTF8FGmBfyyDyU4qmz9sjOKnIWM9HBGuMu9TjkqwzeKr97/tTDRurag+S6bEMgRylMpBv9ytUiajC8Zu/EEXuGnf+wiS+IbwWpprIKYu4p/BQtfMivD6DIGfpUX8bxdThJo07u0fBSg6bQpmexPowyGRLyjO27qWaGo635zU1mFuq6T0qzmwOCXWTPLEl3vINM3XGj3jact1d4jG/j0tuvVBxZqJ3JWvUiMYEiiiJp/0lJzio0E/gRoEgPuDYnFexKXmRZp6bs/rCv7E7OsgcndWST/1yhG+D9/Cza9t2ys+FfPKsWK8t3DaSgqbPBvkDqZ64bjYAy7h2x4BXUB+5MtkSbhDlZvOOl9HnqbzsUXpP7XJgHpzqt5ooqnyPKBJ933siR0TU22wxlhPlQxN3x6yLn99/N0bQLHrGWLHkL1pyrWI+BF0TdBqs+Fv0/P2a1zR3Sy2oJ4lbxiV7/ZIBSibu7DUqYQvJnlvy2w8EMZx3xDW7joE/iwEGEkEoku/Qvl9BW7qiPUkxDcV1rOrfMsBffVT3vbVloLsp7CBYXGvH94XMhHhNcJM1pNWZrDSbNAnKxI7bJy/AwrLj37brB7VzP7vV9kbYowrEZ/Mvt8q6aAE8rFUjmvdQINhErIFU79tXQicyPNxn2PF4ougw7KcGRXgZqNAi4EaQID7g38CffkSFzFRd27ikHs3q/mcWy7mcgXk/L30GLeExeLPpVt2kh6JDT1f8Jkwn9iB7VTRdd/J3R9d+n9F5/W86VP66y0Fo2V8QbD4VnYU9zGhpwDwLqI5AogGZy0HsnXMpMl8jCbwGEpmbzaj15YHbdEPokjKq8Abo9EeXB81a6BO6v/+//6jQMuBGnyA+4MCAv/+//5xyr6EnFB6BB6L1j3j21fiy6kxomRA0a2pFxCh+sY22b3uXGMkGzfjTuVYoitmsV2CQg22r//m8dSnJ2iI8XlVMG0hltCr6KIgKut/Zex5U7SDH+vDU8TDUNRvoVX3K2dr/46OdKGYbXDcBoQ1HUSgGL5xdR6siJYj8yei6Q0idwXt+ZJZ2N96LIKDZEBAr1NBw53aw5oS3GRyAh7PQ7UEmnRmxTGFhMQbSuoYqpawTAHzPIBL84pULTH07mCNYaNBxoEauID7g7+AfIJFHzYoeeur5fbWIpSiA1CbRlm+fSrk6nB3PKHyqS2GotWrmUbDTibSf9dI8JogLFjcFE9bwDZhIc/4C4CKsJaIaCmI239NSSIKQK62IJJBmBcRhowbh4WaTx32TNdiBWMDd1AzR22rxCbNAdm8eUqYpY3t7AJljWQhD2U4AB5SwjpaBKpNBs4xhRxfHpJAOf1n2r5RsAgNA/0vmucSEwAL3S5D0zMWjyOf97jBBIYP7v+YRvCmMjN7rbHfLGJw109FaiNsNni1Xf835W34394+LIGMX/Xa8XYUiF6dbvRIYY7EufS6IwYLNalyAMaW0Wpm313FKC2+QTD5cCAzRFbSMB46TemvKRyKFR1W1Zpf4eACg9STUeQ53YjXD+4dMscjj/qoXriwoMDuuI2h9B2uXpD6c95+kc+dMdoi73r4+o2mBwLh9Y+ONyqm39gxyPqpUbrVa9wc5aUCJjc7bT96wU6zFlnw3uvHaGaJBDCqEnp33eg9/FV/UvH/28/Lsh339YCTL2ovnPSnfXBhF8DkB1oy26kwbEQVqgnWmSOSbvS9pUDckJvVaAl2s0Qfj22lVZZ+vhF7NCAgHrajQYeBGvSA+4OAf3rf6Wqdc7G/XyjERc8pO1KwwR21iOzYULvFrqbSaBJoojh1tSKm7ID2ZPNOkOWJxCH0Zn8XUpzlC+UEMAgoJ6khSAJSA+SN8EThYonA85ufP4NG27kMw45sB7jk+XRycEob/RIJXRlz/wqb9Rm0L3/+0ONsDrGAfTpsUZW4sH02cNByQMV82NX37kMDH7f1lj0pwoRArcVAh8Gi5bU8PDA8SGORhin4BeiR/iRGG9HJykEVyUrZpsL3iinHrRCUTvHISd3sYcKBbDLCp5rbEWhf+xMVAnC2toYhiIvJA46YWJhU4KpQX9JnaiDeEEAHpRci1999NFsEzoN30xy+j3Z1zTNP7XJUw7sZ1BRqKY7Jtz+IBHPDPj7x7SrjgOc/P4fqby4Sn4hF7pQPuK0mCvMZLRS1iPx27rfl3WoFcC0hsoqfnCnhTrnGnelKJpuF4ik5BN+D9lc3CickeLV90WkBdDxA4H8iqod4nn0yKHbL4qtE+2K8s31kO5EKrt5Mo0GGgRswgPuDf4B0eBO1SXuqy3wAQlEEFL+HsMVwpd+b1D3jR55NJTnjhtilSWJS2wHMMfBcI7cZ4ydCAwRSQ084RxH5K86hIvM6oKw483xuWGDcmI1imimQWyQjWfRXc16YJTK7627nZwvP4aAkaV4cEhGF+RwEB09JCD1l/7HXUmp1WQ36IT+ZQl0x/9dv+dE4t2W8UXEwNLzdWjByTAp6AASWlEHFH5Sdo1Prm/uA4jrMSn0khNBaIINkhOxk5AgFLMfDeL0hGHvExkq8sy1c/OlFK07LKV3acKNSkrE1n1fpCk80llW4wUyeXzd2jUkMoLG1Fi88kUDSX0oM+su7F1rLAIE0rxsezpsngDO0xfQXdn9aT4dJ1lx8NTNKod0NPD+k0Ygc1K/XiTp+v6wRGE3RC3h600SwgncbnH8OVVCCDzC7D+RAeKsE6Xz5EvX+DFzSLrzmCMOtwUUB5CwTkJqTDPh2Toay8EmQUvAIvh9k1PnjeicTb4bJl/GfZGU5JnR+SYLNo0GHgRtsgPuDgH8B6UM1yShKI2w1rV2yML8gS2NYvbhlqRi81xBoY9+xEGL7YtXAxbneyFVnHWVCIEzEreggCufUJHokxDKnev69AHmHtz7riXAyQfCawI/lFWMKTguxvL0uhJ1Vlssurhd9swXM9Y4lie5eqRC6oX3yKYg+pLb9w9CaqRuoCUAjOx1UaXYL4RAvJL1hwBEfLI/uw/IlV0drWHcblEhYGZiuz6l2ugAMX5Oet8/2VrMrMHv8lDL+QLaKYfXfWjSnpM0H1xLzU8LM5OEh/Ah2vfXAKykk7MT1omHqtIkyL+EoUlE3o4sU+FmvpescqMKC2+hxK4EuMP6AAVeAl1oz9/N6QBsTOj/OkoR7fk5LTqrAZGpGpfyNbRsh3esu2Z1ZxWvYzpUzvTMpO/U/wD4bJsghxteeQBC6pLG3XoN1XdyLUxFrHbCJ3aUTf0wYD121gyHUxUKd4OFx7TObHC+QMfjDPrRF1X+9uqBxmFn1+7BxtIyLSXCQviessBmHicvT2aNBhIEbqID7g3+AQa5GJkvPZRvXtT5Iw5eMY1hTZjVSFJv5jb1f1NxsOYLAr0aAeP0ZZYP91QGGkGYPNxUzPp09UgG2o9F2tG37yZEAM0CVLG6heNrHcjSuEaWZ0mJv0tE3dscyVCVDlUZunRjLZKUfYPk21LN3+sH68Tw55heiklPESHMFk1dCVRDWT7uf/byO+4zzIjWvc2mgkeK0np2ZHGy5QTpOK1rGgFkjXomYMLsSDZWCIW1psFGzj4Ns8hYnl2i26GIOMQLpNdmnhDdsouJFRz5FaaCAWDKvujFOk1k72hHaiZAeH1tbMFNVQG0NR+ELnYCEV42UiCjA2VTrS0vcfUlPC/BuGWGcQtYpCal/M3p4pdwo9ov8ULEcogC+S62/MbfIkK9TLMHMWg6nKPO1R/CV4211+mNCbRtST/TsESCkf4ZLV7kux/5yOawwD5oFsJeZUNHORxLtnmD6JiVEu+LTwmBSWn4OnoY/nGCSME1jEhNY67TAM/jkpYFNQWnH5wujQXCBG+OA+4NwcFIPV74iiT8a5MURVzgoH2EIRXuEmMue06JWWVzGuOnavaKWCHM9K97yy+th0hZPKWu7IiZNsTqPNzbm56a3zNTN95+LYhHw6rA2jv3nyez4pA8ZBhbQYjlcwmQBzmb5dUAdcCxK6YPSCKNZLg28XzxQtN48t1yka/5TckIiS/TXSrXd1z3TlBLOGOipDFg4OsCLM86t7+8WRNTadhDspM5tTqOMPuzGb2uPHcwBt9f4UB17cRX4HF8Yi4HeROpSoQ6TPIpEn3CyIWK0oUGGvlBjbnIgYwPymxcdn+kNB5FEc5z7k8uQlyvWev4ujjNio4ca6KYm2j0C1UDfk7zYjuhmh7FBTj3lMphPymvMUE00lVKbq6mh+gIN0jvX2xIvvX1mHQuE6ASvlhMsTAL/enoWOdoZzr/ZTjRJYxumA4sKgL4Bqrhjzg+iPFQLugpLroQmk8Au6Ql37q1GfH2e7LVMI1bS7ZN/p6NBaIEcIID7g5iAf91HcRonDBswhhN8+nnlHxz65hZeHGGFAR5Cb4CxIi4mE8Kn1dPEXAvNqhA/jwJjaa30T/YqEEoiOJVtBpr489dOIL514Ox8pGWHYwO7QqW5nuJaJ96VjiKrX3HJ7oXaeFFhrMv4MhXlcfYeKvnNdIP+kjnLzVVj9/p7vtTH8SUE4wHvagJqjnF8UjYujPoeN/pd/l7yjaB87O0T1F9/hbZaIMGFXHDvGXjmCptABhO3SMCiNpemiI0RIOTE4BOei7cv6wo4o8qt4BJXypumDG4SOPanOablam6PUmChaGBvD/kpvnT+Oe3bFv1R1MCFnUwKSMGEHp8ZOw5lLY39khPcpMGYGyZWwkme5/1lU3YiQoxJ8avTLn/9XQywk593f2bcbH8rIGwAttdHiAEEz0/Ni5W2JOlI7oXZIAWocuF8Isg5Erbae33YcKgNR/0wZ3s76aBAAABxAAAG7tQyZKNBO4EcXID7g3ECfd3k9DEgBueZRn30qXeNvqPGNyuPq8ODzpn4ZFYYHfqP7gctsS/ZScN+QsH9B42b4jxLuvl2qfZYyW8AOpBHHrYTcOO5L3hqfwR8NOCrAUriMDuiWD3P0xecdR/pdjd8GdBmoFZX1khyL00m+vH2hav//n2JHSxjSgfSgw+CGwj4FWR7TQEAO6mkVbf+RvJM1NYiRsSCok7ANVe8a+ub02PsvAaH8x2NlnjIZTKnefy/dqnS/TSTIM+nY1EuzKQ6yt6CC0gdkax6pxk43cC6id9d6K/oxb9Pine3ENhPZEH5WCZGL5ek8gFXfiTtDGPx5phnKZFGUO9qyoTDDbWvkpa52Ctvl4qhjDRF2A4nUWQ0wEGNwDorSpp9J/TRNWrrTqkNLYNS/SEEcxqUkKkQN2iy36NBxYEcmID7g3a3AlZDmv6KSlnrfv9bbboTbWU7KXO+vuXpqbwrQ9bRD2SiOdpZRCVNVr3xoIKLM/HZGPiHAyqVpg5PvUDnjRQK3sgFyb3lYs5KZsATms4RlN0glEm9hccwRwk7f0/CNRcUBKcNjAHToPSt3Nn2LT7j3cfC1PPVrH2Ssx09PnV/PoCg0DeibUomQ+gvgf/oosnihKnFHkAl8b2haJlpzeKvV6EbkFmgxm1nYtkB4einPYnzicKD8lb3ClaRNjmFiDmSLl5NV83VXpO/1OfKs7dPxYuSCHKH8bGZjQFRSTxHPWI1jYZhW5y9sEx7Xo79nAPUkvts51XuvqkLJhP46qYc9bi2UJ+ivpwMx1/ni4zbwNpyNTaoFTHBgusdL5iBdY6KFu/4qpDWgcfygXkZeBe/gXMVMwx5edJI3a0fBr7lnFY75e1r5tEn1icq54ebQsD/znr02oXhcRIxmkjv36mBNwAjUwplu+yY5CedlxwUTLbZz3m2onkt5zVW5j4oT/S986wBiFSH6VIZ/1wnhYRxent5HhqyJz/r83pT1U2jw+DYXkLj6WqbcQfhoXA5ej432sGM8i0dOwkG4iM00KNBh4Ec1ID7g4B/fZVjE4QD8tfmfeynDmWhv+iTsCsZspfso4reIgmk/LbxLUV9qRXXuVkMS6JPQAucbNnJM78zW5lw48LvXoRt6GKWlASAYsBTsDjBxlwqqkaP0Ae1uhw8SnyoSFuPeJ254GGUBTJJRx4jxqJ1/CjR5rdd4tQBbaWkI80QOs98C6t1bF86YvnAXDGH64UlY13KCExfyHgJZzIYX8Nlx97J+4n4jlCyEFaPN1My10CSU6aiO7UdxDUmEJDVQagVc7Cih/X81eHcVmwom0tckHGOx63iXPcXbg9Vn4F/SGHuzzcOKXi0J4Cqgqz2zlzjnYpzJkFAB0jwKBGQbOkZ9PUWcy82H6MTLzJV2ftlxep4t5zbBPW5s8+vj0SnJEeebc6F4UK5o1Rjm+j9akCbhYAyV/lsDkGPhx1+v9augxbRtkM9Cl7OYXcPOgIRU6N2Bs8K4hF3KMfaaspLDtMUztQmziFc8kETBSLFdvC2w5CLyhvi70+wSl1eOSNz4BLxt3ajQYaBHRCA+4N/gFpz0Xorxlrj8BAEWoRPpwmh0p63KuOBqS2iIjrj96NVVAOCP7snLy8kHV8WDgxeZQq/5QJG7Za13nrxXgf0Ap70Z1tjlmn4UpohCFwJJG4ptys+w8APtAvNDj6VTtpRp9Ec/miVZBxrZSjyNamcGBqPBgk5MBzaK1ZVwCGbdf4+XEiOalUY9gbmiNBxAWBYUJoErZbAABgp8LPdN77QRw73VE6nXais4GbsN8l8xHC0J/56TIkh4wEcR/ucOjnzxhTxpz0KSUcgA+lFnFh72Y9dMwx0IWieG6IJMqEMgv7FdYtRG98M4cLzNXfA7zdyUwTsYhVUvkDQ/lV5nueayhT5U0xWq7OHhszxnSYxwXC6c6g5uyDmTaqLWC3wTwaskVgI0B2NnZdjPNyuPWl6enY9TDMneZBEHzE1L3yKy3D4aVIg0ACYd5+jRDfzuounysHucrS7CGN7TGMQlm4+8HKshIg6SOAYW837yy5ALgJg7smYLCeRaQWKb/gIJ7WjQV+BHU2A+4N7bkP09w9JZONUo9DH0q/KP+ZrkqDOupHiTI7d/2Ihmfzn2A8/OsNzkOZHA9mCqfLxYk7F4VUoZjL6sMdTVjk4umwgRzXjZKm5zTSNIMtd8TcpxFATskPFGHpi2pBSheFJt0ADUVCjP9z7UddyZMI+DZ0GT+2BOmtyfe7xaF5C5qk6QHTMnuFgj3ykTn5yXgxEdJm8UPdLyjRaZ63xHTHHOZPqwym8dEg7hmYOeXTBAqfdOz+g3H9d+VLOUu0tbWyrqkhiHI2CGIBzVliHZG8mNvzkZe1wzbPmLMMS6mQfPp6+Ql81qhkc2+kSWYJazVlWfPCeOfYPegVjJ7pPngMgvnxLirsiy7CRssQQ7G73QrsPlNgXZlaNGRxwSBKMGr04iSHiggDWjFNYCohwtbeiFLE8nagarQBDHpnutfd6pLSmo6q1HKkhjR1MDjXRJJX1oo1aDP/dHmejQLOBHYiA+4OnAnzprhZ3y6D30CLi9VQKuZmIBT0mgAUf5kZIULd1UK6S7vY5QVQmekYEAEa92YsAgu/tBQuuhcjokup1hSz8+/cJWCWkSidC2y/FL/5NIMR49PqfLvhDu+myK5omtam3fCryRARc0E1Phtb5G7eOHxAV2rPE/vpChIu8lWW3M8ZAXO3GzKqZ84fUDbWf7DSWz4m7gFMAEHXbVvMuUBl24XsaHziPKsEB//7//qNAqIEdxID7gwIC//7//n/4nGnpqL8VIX7PI4pD32kq/qViE+Z6tHqDmwyBZ1VakGEP3iYn4b0H9tae8U8t2F3TbZixeBximzzmvT5DRT/9YWyKo9g3PC5nphMPm3bkbSkdxqqCI8QS2w98lC85Cy9hWqVfqage+QZ094pSLysC5pjtOMt1EyNPpM7/aYpbPS1FArryj2t7y3LX+mXxSsLMsG7yEbA8WCRthaPvgR4AgPuDYwJ9+zR9ZmdGgj8P8Nu5fRvz0itwwPNgxJqU5B7UaOak9dGaK4zhQL+ow6AWbZ0dcbTTEYoHAAAAZzeQdWmhLM7QNa0xqtJlSW1dVFu5CjPvs0G9PEA4gD/gA48AAAAL80ULfEj//v/+o4yBHjyA+wP//v/+//6jQMeBHniA+4MCAv/+//583M2Pt/EPCX37B1Z5aVXG9CXJdWMz7BMCFcd6AGVl6NJOkzkLBhV/mPd3YwYED0dMrgb2CnJTV9+hTCi69a315CWwLFbtgJIqRzkIdPbEnoVsCTSgAAAAAAAAA+AdSrHHqcuuuUGWlddWrY2Bbc6m7fFJOXfLsf4TGY6QO6vlSAFfx5q/jNssyyZRYdq7vOI1m2omjhjL5uIuBzOGt5QHWJwiwl4Cn5x1P1P1TglYRgIxg/dJ/6Cgv+Pbo0HKgR60gPuDw4B8ocNtpnSXCEZLb1Em02gSArap67FL96t54Zk+z+coVLr1wjh+QoEjqKxA0rRzggPo3vNN07zs3tqWxMr7tIL0x6Q3vvXYKewX76k93k+yDNqX+CRZEFrAze0crNTnt/3pjhdQc3ktufnu4R4jOD20uCDIGvADxM4/pxnEJtE/d26xqao1p6J6UGfIkI4wO+980vj6ZmbOMhcKu0/IQD+1bsYkVc+m1pf3B7nnOl+YVlVx0OvJWzVhP4hw+TpVRJrBlq191RUTRixnsdtB1FcqeKkKngwdXYkPzz1YhTIOpC0VudyXYsfAIylvHiyfSYS7bl+Bw2j2guz5JWjQ5N6p9OwmAuDAA4H+RZsglMi0QB0upn6obB9JkzsZTlmsxp2AOx6iPKbm4ivBgsaBEUel9s6VcOAASCFaisLMZMJVh/1kSoneCH7q4mVcL0tL8gLkjVVNzQMrxyWRjLr4WsY6cw+4kb0SyyPGFsugX7rqXRElV9zCK7Y06LnMHucegbltxNcnfLbIS5gdhEonPJ4zhjheEaD3FtLd47+7qd9w/n81VxUjaB2+nxTr4lMEFxwttijI0kShrWG5sXPv1HBLXtKjQQmBHvGA+4N0i52qjtbtwLu9iezPGQmQcNfZmviW92g0NG3pHKVZ5liOQSUeMs2XbyYvtqkiKekM/qDJ1FwXu9rCOKkUyV5u4bOoaGeobKyCkhBDxW7+yst2gsRUPUNH4exePhBCQE3yV6FnRmaEZM03IksUpgwfDrWWEwVkf51Reb69N6Qy75PIaN+Z5f5Y+ySnoyJGHX72g9ohF3qgrs9/U0V52gNHVuP1R7hJhfYo84qJmsybtN4r3bD0gf3S+t1EdKeYgyAaiM4f/ZL9UuqqI3ZahN9d4aBazCexjRa5SR29yoBVKnvFGohjlJL1jN36qITcqVD9te43QSDUIZ1XnnpPqydMlf/+o4yBHyyA+wP//v/+//6jjIEfaID7A//+//7//qOMgR+ngPsD//7//v/+o0GTgR/ggPuDtXKKNW+XBTq2y3rZpQt/oEthgTygRqSIEF5ihkryduZgXcwEM+UgidhvMsdDcS2w7mCfUvGs8iatEDlIDIqpV3nFY3E4iIdvNto5uDImWeCpbgn2FHe/IwfI3TC3VomZJJyVA4Aoh72r3HQZvTyWtXCProju8W0QOne/Hefdu9qRitX3u8B76DbOQvkhx3qtLv3irKTFgo4pXMSlhlHeR47nl+NAQImz10ik1xC5wGS6M1bDfJjClfpkWYxioEz1Urp7VGxrsAiqwmRwxGHSQRIW7ohbZHJ5X7InU3CohWEkj0gIlXL3cU3ImN/GWspgmLW+9WcF4tONDzmd/Ly8wRJEQ7GBQKHIUs+bTiJxNay7rMATVH71yJCO9Tzf8vVHWWjvY5Bfl+BAU+4F0QvOiztd+xSGmu6Jva1W4JkadnCgYgNoiaocB/YzXjChkNEgjc+R3HjTut9nDgEz9eo4FuwWy18Ix6bJh2aes0zqlImB9yzHmPvj86X7XSwyln8S/xyBy9b2lRQOkCIXZqNA/IEgHID7g5tXfQqploeyagQahaS4bQwmOrNiIY9v2PeThZZPyZafJUc4q69dn+vm7fk7QeuozERGv/SWH8s/aLpOiG4dsdBKqA0fS/FaU5vgfR/CLKgn9718azUxJZ45gFT4itA5qR6pgtrH9nsZsgeTPrsui7arOPgsYLnZH0Uw86wuAzyreYUDaZEb35VZ6NQSHMOt21gx8xWC8Da2Qqa6Sil//V5dRN5lZupYqBr+k132ixvTnnUj/Xs3i1vlhdQ4uo3i/GQDAggA15h6qb37uPlYEVbVnfzJ5H0+ThXWi0AmIG7LU7cFy8VuDwAHEAACAAAKDtxT8lj//qNAi4EgWID7gwIC//7//n34rIIs3TpkPMeaJAQt/Ss8XKapFlI5mcGF2/C+QEjW6nTiQBedFL8HamzQfn7I84tMsa0Yabxsgjw847YBqM+qnUABEFNrs7WTMasVRnt5R3PdmmQlK9GqextEcNYuB819Yp/klBE91vRrn3HvNtgOAKjhJ8IsJL5EfRDh3G+jQgaBIJSA+4PUqn9t5e2KvahvkXUz3mFZ73bAh9d27tMA33pbyN6YT89jna4aK2tX4CYhi4PmGkGmuRSXWD8S/7NIqjm4QlnDy4IpbI+dAEHbYtLR6XEKrqwwp6VzOE/jL0+BBz6jFn1lNLR0RHHdddHe37xywTqvrUJDsbZg53OjyPSRymSVxsXyQw1uuSrhIbF4bhJW+IORN8znI6YmKwTQQs0cELKeceEzGwYuDeOuewhDc/jVRWtOY34U/yclgPyj0nRLTjrKQplt8ef7T/0fGa2igu8VjjhVjDcpfTazR9Ik7cOPiMowm0Vvy06Yfv4Ex17rgQlrYsh5jPczYaW9T2NZfF2TKjNTAxHe7aqeK8SktaYPVV1XXVqFPAVSC5+O7shIknHFCd3+91RG382B2p09WyNE5APS3ePmBrU7vyfb0qr+lfeWzZHLulnH9NsJoLBoOaJaffXOJIFbmKjoPkbYyS5j2fELnp5Wy41vIpiOdvXNSd9F5QL4/mG5BgnWbX8oqvpz4zwDLt+rFtNGluE7V//VQxNGYLSaegCV3txwgu2+IheD5HaGgW3ENZSo+Zrv7rmUs9eXipkks4N4CAjOtqu0IxIvC2c0ziZ5LNpbXTiyQfNd/KCOecABfhrLZGYj9Ytg5pGAp2GnGZqdrIcCSLAFXeRMf2tgcV7aTOiqeuICDKNBhoEg0YD7g3+AfJ7VzZFjJoml8vo8copX2pe9aGa3fUz4A3Sabe6Vw0WALxHt9Dqgl+YQrOAD8sQAf/FYVP5SB7tOqdrY4vfapJlpUwAky0qdEQqNVf/uvpdoxYkvjsFppRV8E0amGSk/B2zcvQAaWRt16BZbjPILmvbxQqvkepo/8XEGbMnIGnW8BUGtgMG0MzsuW0z1e3TKWNNPNcJ9PoBFkIzqVa4s5PXbvZsketcfy0QJWYJpHkFlKCL2Q/Z9LdlCeLoATYB2NO85TzZ5V0uS5SP/LTRXqUt7a2nUEv+YBJfKzufW3NPdrawgcgeohgnb81lbn64+3acZDtnq2A4h151k5lTXfI93Z6mjMm6n4QpsnhNUNaEsht6fPZWnqSIgDK3V97YHl3gbeoFrJWPWXeL3rD3nKpNXJGhQutfRTMhnrOCr1Zb4RcHaiHV7hdMozEW5+UClBPUImNu2lAn6HjpU7CYaGay/bLsEkn3zJgvDIhRq5mp2n42kKaGY7xEPbdvf1aNBgIEhDID7g4B/dg9X+4xkmsSEZzJr8e4UYwusCbYM1MXwQKG57oi9oo83tGpG2Lrhbb9xAKelLn5ukggUvmlV9cmI29HNV/44aX8m26kEECwIp5Ae7e++lU9jfJnIFWVfA4qeW37ulsSjtoZYEG8bA0SO0aQzdpmjjjUHaFwiIONcyQBjs0fX+kVwHTyxKqFSuD3+V79OBTwgU/5k2QC+czrvwA6RlXhyaC3PNvKRcArdvLQoPIULyUQEi5J0ibjD4HayPaJXgbQFL8DiKCGHvuDNWST1e2dpLGNCYPhN61eKrh+S3bBXXQ1ZCB/Jt3iirLkHqzAr6EUOZP2/HcEDaApeTEbA1h6QiN9EVfUFpjKHmpsDJvS/4qm5B09fdCYp+Kr8xkB/d2l+vvkyAi2O7a210ekAmts4px03bKIzyUzTLjsdBpAKsBQx5dEX0bO3Cgq9Crs36iae8dqP9SF0ChaXcVKckEJy78+8O2FHKDzdtJB4Ck9Kth3cWFWr7RmnUKNBgIEhSID7g359sGG23qkFolN+20Yrlt2Hc9enykR6uKn1DEbzm5McB7P3BoHcNAb7E1NdGAiDknlQdBNGV26dMI0qWn31NJWZcw7BoqKsoAlmZK+D1okEyez9EKnbuhpNPjLIbhyQMpv95FqyFy3msWE7KDuKk6xaIuBqSyOvVfJQNH2DlIC4HJcQ69qZANoq8xROLub1Jo7wXTglpU+1N0Pc4d+Kc7Pl8YA8mwpJz+L0OwfPEDZluKukoK1innbhjZcdH5pwTwGhzGfOstFqPSd0/gVwc5tUc0t5x3/fYwqiSKAr4s5Ed2z5bAwvZazwLF++fwp0AwYk9uWDKPMOzJ7q+uE+elkp73wijfiZJlasJ2OzL+BtLyGK0QER7dajclXjqg4TJ9St/TALCkTLkHDXKhW4mQLSSCIm7tp3JM96beZY59j/VyT81OwAiwOs3zgxUNsvJrw1fe/uFLrASUptYsrpi64XljIbv1oSkW+fYcmDXKq34MWJbemKEM8YDqNBlIEhhID7g35xCFehcfD+dTJjuAVipvygCABJ67z6EWhkSamLSOJbmG09hfIFNW+g9JPvq5hm8WazbhuErf+r88sltXrDY5aaVe5kht+xLLwT3Bt1+G/nCUGiGFPdgZ3Hx/ItAsVQBVop35YOqwTdOs+zEPfDsCfIuBafdXUpJf17yj9HEanIUX/5SahhYLKO0x2BMKJq0xqf366y+lXajLE4R3NxzrfAHd6sP4D7wHe2ZcGzObXXkYObsllNtDZlRUTHsWaTA0lY7kYhFjFl/rRVTqLu4ipboGp6DHPNvrbtbBbUT04qJANoETGLijRUAKSnSHbpoH1855ELn0WhWZ+BaUXBA0XwKmixR4RxrxEOSCBaUzXlJ1rPF/K5k4kpX9lG0sHcjZ842HIwQqNgkwTrwpHJbHBgYh9ItUUKaCYQNxJIv88t+N6ppC4qyfXtOIIF6NW80fKA00NLi6V7zmyfffRWpaCusbVbY/OT1nz2ASMJZrsGp2MaSgi9iqKvQ0jWuan1/AM0y4QStxm95a2SghCho9GBIcCA+4NFAn/7ijDEBcpqp5e6Ir8BQ8e1m1aefkRvEpqFOvt/4PfQnORM82YyBAEPAv8sloEAeDqi+ThGEwLsV2ICAeBxAAAh/Gc6xP/+//6jjIEh/ID7A//+//7//qOMgSI4gPsD//7//v/+o0ErgSJ0gPuDAqr//n1oSVRkn+vuMk4C9noZ5IQnQdMBKD91216D78rJrivpPB9yzeXnJRPZsoS+kNsUvzqI0fKpYtEh8vKr7K3U6P7hgA6WyWaG9QvkKDOrADxqSPHhEdhY4JZTIcNS3IPmn6J0/svOQht0ECPPkkRFO6iSNjnMfQw1OX4pODfOZ6LZ4F2rqMi3N3N3Z9jd6J59BUOfFB3lbZJZD4O1IJ/lquD2jFmeta0h6k7LbR9L8q+teW/vujGBxnFs+I2BXc8dWHxMthsgs9rVAKxBgayUjFgHxIUXcqVkIpGT3q5yU5rtOSS6H+7X27BW7J1WwbwVSWQ6KE3aik/4qPX8iT9rImpwJOqbOwMIXW5HKOGDDZrIoXDOApexv3U/c9vQjcHodBijQeSBIrCA+4OMwX7G0gtZtx004ajJQkAz6qOyenOPYlpsF7JvG9iVI3thq11YHI/FwVrtcu5P5ECJUTr6C3HK5zQKJg8YH82rcApTz/OZpacaTOxntmTYxtrWAWIsMyQOgDboWOlSiVu8BQQ9AWL7pA5Uy7ee6uBLq4Gggog7H6paXEGAFCSKus1js7OflbFNe4UYiCtFef8LgkCT7pmvSotKju99S2+a4HjlMz8ZzLiMSPDglRCdYBvkIP3Wcem+ECQXs1wTseRjCcBWTvUDzUQJwOqHG3RXxd1/2+gPWjuyBZjWHaVwpgNKnTkhO9/TGKPOesES33v87YEQtgmKR3huFYTbvtd+sz5NWLF4mayPe9A3qbfbjpV3nLfhZbLKBFAJqQaGTSHnOA5RCVqkycN8yRh42vjesvMr1evJBUDbN6tmLhxezWxWffQsInuXAHZxXVY8TH+qJib6L3H7uAkR4goQRGAypC3rhYStpvP8Vq6GnuU3eh1OMn/KaqF4iaDOlmXsg0iGs6V/3+w04MBx/XCZ0oGVyPCFtV+Ra8GXR+f3bmG4+QYPFt714YOY48l7geRGHTPm2w5Yw6xSzowNF9+WVS/yS3EKmXoyjgDECvJTEnd+0NIrOg3jzxcz4I8XXIpVo0GGgSLsgPuDf4B6l39tlEEkuqcXqh4ZsYNZcxiS8Ykx4GoORam4u4Dx6u6gOe14U8JovzlcxV2+qLhI9McXznVlqsMwpnfdXcsNveDDxu+/vvCUiJzFvpC64c2IzlsC2CPd2dChATBtrB7WQTz6sN/5dLKsa+ir36SwenlShDSXYBMbGlFOC2H5chlR/wPe43fyR7E3W2gJfTdXdrpGMjWSwDvCg4Z/dLcIgDWqHJY2lnBjSWSrwixVd615Y/KTX6ROKHK9qI6JQa4vKZHMAmPnFr7m/5Cgenml2RTDVRMlsPnY9x5mTKKCOJNdNSvUxMgUb5KIAc5xcDHrxVXRAezfms/IhMc4Olx2sXL8gxCy4IQJ+G1D2P9SvUz5dP9KYtmmF2gJfXWauQ0x1jR1W9ytsVAgX5ZO0U3SHMqwlD+lA4b7Urj3XucvNEPbcPu7AAPhJHPwzqGBQurU2OKPlAMRem7GHYRoC0ORxHJNCSdprT7ZhsahQwCMyN32TFXjMXa6Kzii7ryzo0GHgSMogPuDgH8juo5MTn95Q1PdPUmo0pH38qfbJjOck/fbagFXiWdjRkov1RvRw8EPs0tXx2epB+lDbxw0+Y68IieRWXEUh4J6pyE7ikeo+xWnHkmMqNC5Y2yHiokhkc0ucJupu2bowqObgBeOFfCi6squgOlYKSwm6zBJsZuX+MF6omeA12sGFi8ByF4Nypo6CGt55boVUEcpdxML1FNdcdWOgE84+USNPLGrGGcVPaK1VRUSns3qft9YAvAax5UAktBELpsPCnDJBulOEiVbn/bRSctuLCH4lnLjhJIsfUEmP0VF2ZNI3dnWsMBu9rNFoJZzf2SN1jHlRmJrgdLUuU+S3JPj6nMvZbpcIHbz0MRNOdE5RCWtsaSTYO1uFVFltTDLhxM81SNCizgPKtGAS8uv1scBC4guzUsVXnCic9hWflRcDz3Sgail4bBOjYtOKQcwyq4I+JKeBsbALa1aBYxwQGIriHMx0g6LedB/hObOjQUl7OsCdIWTyeL/Zl1ymT9eVIT04qNBhoEjZID7g3+AIICT9K+kNQt+RKeEuYI2L9NZzoZzDEm6uhXomp+UbNVWblAAuyUlfN5zlwm6HyiDVEl7vbUY9f2dcTlc8xE4hF1zPbzZY0VAKIaN9Fh7NSTjKzZ0Q/WzC9FRMkiXujIwvmGbu+b88vsYdw1b5OKzZMLiB+q3e9U6MSY+51+GXxI7UeJT4FdN/Wl0ikvDuPPTBdyJevv0uUhmI7r7DBZHDifm2YM0bfPRwWoaJoFlBrT4ycT5/1cLFW8dkvknwEV+veWFKlRQV26wFoA6p8QR+idzGPOG+wVrjcV77DnDsIeSA1O5+EPvCxY9DlTH3+rhQ6M6Wy4Vp1svcAxoSgzUEa5ACj4MwNMJD8afhXatxW60gMzlOUP+QrA7pHRIWUK3LetUZATSQCXLkzUv+ozgMXumaE9DPbrbZnFB+gw72CJboEiwTXPPiRG/+0y1x5BydYf9IxHC9sv0VKHQhrMstOKISVSh1Z1Bgp603PkTZ7frHuVOUdAOjs9cBBASBqNBg4EjoID7g355C7DVpqUKMaikp66INj9Tlfz85GKUsjJ+Ac3XCMGbHy2SznmqZVlqnE06elyrvKXO/uc7Hp5GP+DhK2+UT1ZngTubOmwfKMUZksmFsB63tiEKNabRtb4qJPxfKmT23E/rUDC2yFQoAykG7N3CWya2B5DuDo1QHnp9ftCPRuIIF+s4m++JHSIbcsFN5ihRuO6swOS5VsHzI/Bquyge83CsY1lSueHWOyya44iNaSDYST9noqEkCCxsWETvv99f+o+I39K90ldsKa3AQzBidQUXXZesl1Pwm7zC7p2FYNIC+ZPOlaF4HpjLC/FRYK9/l2ykZOBx9pGQEJ2bIv/TDlrQqNxzHTfu/NT+Gh+7gc2vh9QM7zFYLVbhd8002tB6ZlAl4sKKFNZaNCPiTaWjPYb+RKUs/D5hhepOhOq57QBivArS3S0+77Yd83e1DvpinlXH0bwlG7mlkyPS7UUMDrCSBroIaV7AmHsSk0OxzatCCL1AzjJBj/euCJTWu6NBDYEj3ID7g3aNRFrYoqn5ZjtN11M1mRvI7VSM566FPXTXDwpZyveTs961WtXoJU9/9jt+rktt6YjixthUUMeErYI4USzt1UH4Y71iyKnfcUyVGpy+bNxaVFTqNzlF4LVnxz0EUi/EzkSliN0L6u+Vjomrsyz7HJdP6vjSkluY6X15JnwBF4nuFAKRVGGn06qdfTJuoAtqT3ROWCkCGTlouUfS6dXaDWF3pd4wee9KpStrRa85zghbCWpquPsE21ZDzB+dhWslXLzVgz8ptFJgXzJjyraBDWtt5diTpNWVWkIvAhp168T5gmamz8KEWhYGqhcvBOyTjgQFUyKkNh8FF5nGGxsIG+h9P+QF///+o4yBJBiA+wP//v/+//6jQgaBJFWA+4PHt3y3xgbDht/N3roYo+KX0RGYrIh8oBX4YmFhaqO2bAfrzqT8GPg5GXT3nAq095Ll3QKqIO0vMO+bA/+X+Cky3KJHB2EbYA8H/Q/Z0bLsQlHoi8ZKz28NSyK4LgvJ2nEqCjLg8/Mc31KOiYHbTjbY8lJAUK4iHC2tmT7j6aCvWGL7vpCT+zGsuaFeRdL1xTP8P5ir2J5l55sXpzwh1WuzmWJ0F3dux1k3v1qD6TXxFSWU8PDSGz6EM9k5U++kSf8VK2e+nTR8uk18c+pEdoLs94D+O15i0fjWFA33w4rgHLhSsSOdQWyQJ3UzRGWCO6x4aEVAAx205HtT3+fsf+nQPoFdJPZbxGy0ppVMnjBhiU+VZKx+3ie+L7FdzdEOX4g1K6FPEyVqDE/nmcVbuUEqkwxu+3yUhovWhwEgeebc36lEJtjwm3Blie+dWQiMmcyWFDb4isZrX3+QD+/Ef4zXWMAlwUTYrtRsPJor1PXcJEF9vq4HvMpnaA5T/aHDlfN3sPqR1pvlEo/JEXPMNK/SBo74uCLonQmyYDFPP5T8D5a8GnmbtfnXax/A7ireM7xnWvtoHKm9/jhxrALhH2QmvCxTuXPNilSxyDuXuh+kchd0Jls0N8z+NXsP6dfbjn7O+23v+T2HX/0pf+0ufcwJH2UQf8jHDtr+EY1xg7TVz6NBhoEkkID7g3+AempIzA8vVjzLVp5KL0H0TywadrlTQQ7WqrGyXKqIbSyBpdsxddcB1V5h9quBuM1q2OCDoPZbwABXWT7X1Tvc7pCjDrcJ7MHySdXz9ZNH4YM2c6vIKIaycFhJ/7uMXoYikAtJ/WWYYp2q/b3i0eWiHggeVBh9g8qouqNGzp9pAHQkfbDAoCVyT3u93MCFDeEkAQUqS+KIU48I4o0ppq31uDkmD/ztcCt3W/DiVOYtUACNdANdJuxvnFjlNga9Ctx2Az+KTpPb6BcQFRG2PZabJA8/FxNgJ94JskObtV3UT5U5vWTkyvn8dHtn8cBc2YgreE18ag2BnHFHU+R/nMoof4u+KZC54D08Sv1as48EWZWnYi/FOUi/3rITJl2/zcWIk//TmVijzCb/4+3w1qR91S3qVVUFG6jLRQKMNFesL0kHC6XV4MSVYTkOEd/m4FYsVBGD96Te1yqEsmHN4nkR5FrZZt3IdMgPhG2+v03oOErI5HhSuNOoHtq5pQX7j6NBh4EkzID7g4B/fBTJS5foEQII5b6W/qp1EQczlF9n/yrE5PWqu0EFYzztVYvp7POf1Z6njK8c1RiQmnQT7Wf5UPRuJZSEF7+aNj8T9p65SNimhZjQiIhtxihr6dPN6vWKr79y64utrpd6ZxIh9kNZc2qfXg4xnTxYlfTqmEMH//7n8s2uoTFso2536uDvtzjHP7bJiXR52o281I7XuIotkrqDy14eIeR/LJ+bdceVeGtD/pNjIa9ZdOmfE1EH5kh/D7C68JVFIV+CYPD+D8NQ106q25Mh/uwKD+iXvEPwm+NsAAPF5+gZvoQEKiqSM2T4hzkONuXPK1yeTf7hgxORZJv7kG1qPVHcfu0mR+vkUhFAq8OsIGN0Ho6jIC9NrvahvV6GLN41HkosEHrNP/WM6q3rVTvRmIgTqH4GIUgPr+FzIEE0sKf5fZXzLv6Zfnu+8h4eG+PECRbgJOzqdKDMkUFnuZUpgCWcAylfP5SBOQ/NQQpoRKKFt0Ok/hXw26NJ7P213BtVsyKjQYaBJQiA+4N/gIqd7NnlmCkEkBCiYscc7WBpPr38UbLURaEunhAzmMyaogk+erUSOsW9iYs9Cbj+GoBGFNSmC8Af7HyoqsRtK4hT/+dMpXXl/XQ7WrAVYI+2WdqRF/1uv8obneyBfGXpeTxZt+x1Ps7jQO0QKBCRVi3ICn7SH58aEk9kH+C/6qCfyj3j8xnvMlind37zZqlDIl5l2SOJwz6T9h2rpBMIzrREPbj4ydOjA4pBvhZr/dPpX6vJWjl2AgSSrpQFgO3uWxbnERv0421leqC/BkZc7UjArh97jHK34+b891ufNVlW5zEJLaOxi5ASeyVyJE3MERZisq+ZpOWW3bEsmr/uwp+/ioMXeFy85UIhr0OOZByfg45hq+dhV5+vOC1qjuDL4yLKxQNcfnQ1UpI2y7Xa4qYe4dhaGH6nPv4alPodXT6XuTnVjvk4hN35/42zUh1V8NQFP9wxtdgHZhYqOrp7ZV0B0CjS79r5lOwl55/1Eo7hYmpI/7WqpSh7FIvFytCjQYWBJUSA+4OAX5/Aax+Z6+Au6c9cg8pXmmRtRyZbO7PewMQb2Q6/DoGMtXTluc39dDUTzzgPcdgUdlvKMMIFR5+FLlxzzyxCG9xLrWqxvQFuiVkL9OhoIMlk9FHKPbatP+x3tLOq1qNgtEqPP5sIrEp49asI04zgLpoVPEbMz0Vj4bWCMsKHSLzQnTv/CsPcGv/Fq2qXozTO3y+SwoFMkSPljJ8d49IGJigPkT/W7wjgK8yFxEV0K4CtiLIwjYL3FpjU8ZxdWPsNHwgxXUPLdM1kQF+bIqkbJhu6aEcHc0Rg3/PV1w7iqMmKaztW1FxNELL3ztUMN7+ns1zOs2GPo5rNMyOCRxUEwkwb0G1O/2ke8eh5cPqYsNndrhV52R7hdubw4Vhtsvd9XN1vPmt5xQ0wCnUFVmHqNcW+FCW42RVC3QDeWl7W6+pHzFm3OLx/FHkSoOcY7vJllgXFudcoKV6TmGdAjPV3J0Y54xh0LXNOuy2znthHkqsjU5Y2qrQQdvBL1uq2waOMgSWAgPsD//7//v/+o4yBJbyA+wP//v/+//6jQaeBJfiA+4O1X3udf93CaOep3lIVErtFHcQFqHveGNvZJj1ez4v0Dm6nfCn7VUbzgyhej5gLTYmTtkzhqosFAy0WZU657akuyEC6xLPHb/8zzVs2ddUgdZ8+Qo4OjBJyTEXQypZyEz5pVa0iu/u+zn1ZFFufkLFURC+I02XbDc5tbNzwy0c/rmeg1Qdg4FzvHEXFYCxFIi671sRBlxum6jCGTrQ46SFD0suKT+Ajr8q/6weKdup3NElMW5sMhMKHBQMNbI0u6TBFwG3dq2X7Mw9TtA7Lu49XBWCg9nrcR1DlDJ+clQ4JmDzWgC2hXQVz66o/ZV5YbmTFPS593xDThM3DC71eouRbd1+YhiyFv20OQ1Pav8a7NhyKFg2mwH/2FROaPsbWWqeAz4qWzIY2BWtBy2HTEl8tYe5YiCw6Tzf97dQrkgYv3qRubXuSf40lY5nvhB8sAU+j3UNJZkmJAlg+437rLKR8OLoprCrI3Tj4GJU++23RQIVkdE1+uU+n89b4xGPCZnY0EMDwSGG5iedgo8DTaEAAAc65AZ+KEgAPuCNMS5P8O96jQU+BJjSA+4MCj//+f+6IVp2OelOBruWGRN7SsnePl8NeB0Lr7TyR+S+iT4MRN/7W+X/4qFuZXLpg/UvgXNrogkQHrQeGSAeLiUaDX3f4nVSrCW1gAAAAAAAAAAAAMKLEfGJoBYv3EhGgUA2sAcE53SjuxrhIJDhCkwKmFxtjoDUhiO0hU6/9U44+/1P+ieGj9I54AC65AYzMMOF/bBnZhrn1dyYH+FhG1TIycq/M/NcubsCFZnEcOG4KTz+dkMq2OiFOeySv+jXwqAZiTA/PHh+GPByKDCTLTJiwdbOb4kNRPSKitKcvgZ871nuge7+HSvKG9PNwA/yfxhbS92eO9CxIuvovHc8rnySf3LXRIa2FWB0NQoO+N3lRAYGbI4OppA/jsBW5pieojB0sqNrubnc0s7iiCZlsUvOOW2Bbm0N12/9Q95S8baoqpnb95P4DHaNBwIEmcID7g7l/fuJOZan0xREZv9Qo5syD0rDL3YGTzUpBXffvPAzfiPXl3VfK6hmjMilDQeKQ1m92QelZVN6FiN0ZVE22Whm1Z6rFbcivO+CxlEqkyzIVtXA6K8ou4nnPBosOYBbFgXBwtn8wRh5vHkrnHvld2EghZlcH71aLhZuVEDRmb87Bcqz6rq4NPyoMeScgIrA+9tgQiowuODQoSWVi+Z3bI8u8XWZlNhtrLC9lrlKyWbXRirBbHJZHs1b8qNh9puouJeXOgiBfOqv3ERNT+IXLgde47pbekT2o0kOs/7GqCStz95pdJGm2jgGNgjNV1rCtnxXYwCPPnpTRV17PJ9lISMVBXUIdj/suBTPISAFlW3VyPpwQnqoM22HULk1NNWv1k9tt0Gh3D/t7JiOA58HsgFnMOZm0ShZi4clPfDldQUxyxvYXis1BhLvbqFqj3CvKCHsIEZon2wNlWdSQE/XCaQJrb0UEBjbeiePyJ6rAupIGz1xwDnRZlGvW0KKeHovYB8HyLZjg6kIJOzKLZ3BpQWWarH4Y4q8yo6QSr5WgfgthLz6UYminYvXA2k2y75acvpxve7Dy4Nosnf+jQYaBJquA+4N/gHqZWQKvAAEKGhdTDkRb/25MwH8CLlBIfvQ50VM6U575+mJ4Bx07FdDC4NgurFKi1wk9lA1mWHdfsYiL42OpnuuaG/gLFDiRQDc75Va4osX6RvII3MNKZzq04JQ/c8XTEECTsLJKZZfCxAYpkC6DOcl4ylYQeUi2vBOBzfXFF/GKiwOMO3iuupaUPVsc+RlU5K2+PKK60iGlVGUzgRiE1TKXl0LMUj+XWMKZetGM+XZRwEo3QnoIPmQTh2NUcGsyTIvMIID4pLr3YAm+Na2H9CiAycbFi6DVHkummFGS28jXQUqeNG9aA9ZRyioTyffo+3Owl+b/D84IYLOLZtDfMJ/t/2m61BD0TScbpt7dbE4qbfPIUNM9YhG/EgZ3AzKdNsdxiwhEaRO+JYDn3cZMsF9IxUkwd7DMTz7i/0+WKJ63YtR1owGpCCsK9PcYn5d7P92waNcJyOFF2qOH2lhZ5jceFLb7Oo9p6wyn7S1K11YB15/c2DZUJSCvT9/D62KjQWeBJuiA+4OAf4qlyoF33MqQbDtta1dhfpeliO3xqQvq1NPimKMWrzcLuB1FilfK3Uahj/JLgB8JTTXXrSBUsfGUWL3iDiEcGvYUbCt/vx1/rwhm4PC5gQEiFlbxs3yWD1E759UqFVjcMt+Pnp3YTFx9/J5cSDJLSALhe8CkT1dDGIQk6znkFyzQtRWf5xigeFbFHl/p/IK3fAMHroLKFJvlh5P7irlJUgIS9VwmzAIKA36jlkQlxWOL66Kov6LIdiHI/qpM5D2Z2FT02zgdANwmVIx2eOuQVHDSulid9TZj51ygnd2hwtsjTBbXPcnjQvybw9wBAEAIABoD43IaiI30Rw1tzZoDBrPxgy9wlf9GzjPHeFimw6P3G9UPnuV5aj9LGxRmmiC972f9wS2pxsS1IGfyfHwkkaXsesXPB3aXmLpN0g1wEq2yIWCNh+zP4119Ps3z6PpgWlt4O7oNNrPZFMIvuI2xgaNBKYEnJID7g5+AyqcvHgyzvohYJFfvfzX6sd/PrztVshI1UgXPdDxT0XmBwJk+jy43NFQd8t1QJLFOIvOCAJSVvII5z57kkIHAT+8rtPT65/2v629HzyeDAh00L4ca1ff+JsL9aDF2+elAMZwnzkyhAhjtRWT7a7jCy0O9wjV2W1IvHSfZbEY0IhxShZ/6w3ZWxtUnPL5ckvJylqcH/bT1Nf18RNuTMJnFfe+PtyiAMmqlEmkL1ez1o4myuwL72U+pI+fWnu5CpJDlWjDvwtiIgEPjdu+GdJ/KqyU18VR+tYaH1qvDougD+K6ZTwURPtnZNxvWr6gvupMTd8CmOiOLmS0L3z9V4VRQQi04MFOfMBQAqp3OP2ZMogKMyQfTJ5e+kogGJ6X1cRz//qOMgSdfgPsD//7//v/+o0DDgSecgPuDAgL//v/+iqCcLMdJ3uaNI6ehVYf1BUNrHBpuoV+t6Cxo2OtdIvTEixt5zydNXk2gvi4vl39PhG9EQlHVPD5SUGZsMKq9JjPKZYFOgRh/rF/+qZQbdvm5hrdIC9j5LrsZjsZpPvZ/HgiN6EPC1wNSh8xYv+en/+xaWWrIUTq5up16NGeOXvZYHSegoKukz/UKQ6sQ2sxeXn9PxdqtWeLG/XZkJmJAHbgN1xlaDUBVSIUOY8LqyuA0DnHGUXXQo0GwgSfZgPuDf5CI/szzrMbk0Yf2s9754aL3DWg/LXDUWy5xhOiv3P9yd58tYf2gI6nSOmDPHrqLuMqzKae/xLsNK3xSQBXIxglyUpVawPwB1BCtAvgP8DxDdRgvZPD+qh9pmX1KsSddpz7ZUQ8ezjZrB7jO/NZW3FNDB0wLgoXGl/PqLxZzCz9ZcscJVpGAIloqq2ZgtIE0g2zqcJvMbU6klqgpXZnmcuEeg4QXa4zBOxkQBpdokHMKxJvfJu5DEEHFJGmXISoRL62EZSixbZSdsM7MtVvG54e4Y6BINIgBUM7TIUqR6QMLj50QUGhiDWuduZE8GPo5TVzpbHUagDDODtOErcxgT+iw6i+nYN50J9ZK8URaL8DAfeHcVkLRuytf9hcZsExijoLkdxhVdnL62u6W26HsFRLW47UqhHek/CMEtZa1cA0+0Y/RMkA/wJvfcmaG8v57qoRoxKZ6u21BflrwMwLo0TaPxMQw8zqAjnjkPg3a9XqKVXSp2jep8/qQbB065XTAZ263j0TY+223OmHiUxgfJb459HIyPWkx/WddNBfVeLtXHsb5AXLP5bi4o0CBgSgUgPuDdQJ93m4qp6B3sbXUYMJygI9tbBVew1uHUFdrZrElkzI2Gm4MmEKPLvc6dqraGSd1iKWkkL8lnU9KxGM1v+Vsdq5p7R5WtXBuKgbwOF7KaraiwWdsS+bg+nxF5/rteCdUGvezVY1dl+Dw+mTFXTMAkUYCWTsF827//v/+o0F+gShQgPuDArT//n3Ac7CIoiv5FnpPjkcuQowKKx5LaoxIXp3XHvwKj+OqBeVKzVVuG5Ort//5AJHPnBdGevwUAXTdl+z7x/nk/+lzTi0jFaDV6927e+GbmhcWXGDByAAAAAAAfx1JuWinQJTD/kSNxyaFSfrdPNFhr1xHUzKZ/4cTK9J8UYsAyzvhC5DzRCUwESEwZrjR3hXjw6cBr2ZUW+MqSB0jNPRTN+JzsHYOsqgEjCUBJMI4cAx2Gb9ZNn4VbiHZKl8UfNEi0YR/Z74sqYe9m16NWu0dpxDMRr3tqhrmpZiZGoVM89EtpZwNQQZB7LsYUmVjFZ0kl19C5EM/HwW5aQVjyoIeX85PDDPe8olaAYBTVi6JdZ3i1mI6VOLh3l8v84VplwWOF4mU1ddJLDjMrXuiKXEIvA6Yyw79M8akzKOOQF2xm4Cxak9eVxOA60M6xRLA5aUX2+O1NyEyszfgWBPDx9qFNahHqmnDM0gTxvLWIcp+PQ+k5xkEQaNBkYEojYD7g4p/eEaVjHnoSAhgHBl9UlGfeNgqFJKGHetDscLIbALMRDVnQOQTwP0mGevie1K5IGwQejSKq8eY7RwzmfBIqMRjxny42xEdOOT83chfyPwqyF/GgRcXVDzqrC7w6ZTM4IqUpKm6GigDgh+8nVtOHPkRgBQLsV71rwIwSe+y4JczYov/vCWrmeVoAn/pfZRwxoZy1HksXldwNG1jDRXbqztSVlgIOXD14+4fV1IMwGX5szYVljV5Wa87jWOdLZAHB+Or7LxcnVwTzSwv98q/fxC54F1/aKlUOsZ2EvJjwbY+fC1dy/jUBGtFVkeg2mY0JIFacCEXMLkmR2quj6b7R/rPp8J+3S5FJsnJjIpCQsBUFIlBw1xh666gmcsWagXAgvQ45bwZ29ybYEYSQ+k8RyE69evYgOanHDsv0kiGZoOjXKeAkQ9154I0dRG58Qw3FN2wTQ5JUSK3Ql/HUg9fUUh0rF3F3B0PUxdP1CZc1u+n4fquzMkAy6yF2CzOYRAoiyqf/OBOU160Av1go0GGgSjIgPuDcY5i45RVzyNfeR3vjMCzWA8XEl71FkgbN509VDWKSmDrOcEkOcjloqJtsUP75dh7OvfBYTqfkL/wDsnHtAVIWi0jvv86kPrvzSKTDzsmF0QwQNYNLUM64DKth+8tnP7dC/PN8X/ZXzPsDeq2USTSTcRbV3zrs6KeM8m+2cKFKhnWvHaHVqNF1cDwhNRO8dqC66zhaHkYaQreNoyo6CCnskKb+1wlYYGIy3yHCI8m2TLtY52vzoNZ9rfhPjdvrczBQmn0W9OWV/7A4kLtAK4HZpaCBIhu0JQQZnbtG0TKzwHltOKu/9j2+KSyJZJt6rCBifihwbowaPPOsVmlBu7oZ7yKpAwmyEY4eDnvoVCYufEvcg3wEbzJQvjtJrZxPsAwYBujFO7Xbk5D4lWVe9KCQA53H9wBTG6gEpofpiA3eQHdosE7QatL+GjHijRfpyoZuwEzBb+bceVSNK60FnmOe7kt7x1H3wkgdm1ADHELe2kcxYLPwk1LTTwbXHGu3ZLuo0GHgSkDgPuDgH+KawTfI12uebYMnM9R6GkxrE5OIO8MQ+yBBFSwj9tJ2YEioXoZgIlG5nSWn7O/ngQgTYTd3qrG7Fg0ILw+UiIHAkzmQVl6Z2s8kY+LsWRU7SMuMGTJG6W+rNTHLgTCimDn2M5snmZaLSIwaTnfMv1MXIYGwlrrqgRUgKO6fLVx4p+/n2sAbD0mC1RbhNo5C9aI0mZDAXlVcB6xBL9f1SKrnQUd+0J9AfgwoMlZDG7UTxpdtVeQShP+ISJdAQJGpErBlEz5Jl3WJOxtPlHnYR+nl+ybOX7dXpK9QPg9VriWN627huQpm/IVyxuCIQ3zUTVKlTEN/i2S1UdtSNv+otCfwETsiY2C+3T+iwm9LOMe85ITMsQPYpfBQHvxZQckjNfV5e3+HEzeII4ViFT5ZOogpigVIxreO9ZhOZHp4rSsj7te8nukAFwtwtY+Th7mN83RsZxVusg/YLX0WnEcZOZjbqn0gq/qE1NJevKMhnRsVxSWL09l8p7UG+skW8kJuKNBA4EpP4D7g1+anTygCiYootV5/gkThjZN/RPh2lueBmBtBC2N2a03aE7eBM+fEi22R0xoqSJbTTrP9R914U2AZSnIvUFo3VfNFXWuzFCV/G7TXdWoVXxAiDDa4adcTeAQ8kBGZC5yGNGKa0qWliyggS9J48KRKshq01fZUpxlTGyH3UnBVQGBTWr3TdfyIytTiEvDTXmCn6uCGQRokJ4z7+GZ+E3Ys1muygMS1+fr8qzrmmfgDLQQ5oATVOOAUN06OCscRVSusGLYSgEaReORsYh2O+hj6ULDbEUxR2XDsczuMvJGuXS5qVXr1iju0+XzwErrbQb7bOYL4nsG/cE/1ZZB//6jQWGBKXuA+4MCs//+c6IeyoGohIJx7xdZDz/y5TXAWwnVaqbkmJ5VXOKt5Llcyzfgy7zwsjVkgqQnMR7WRcAyNUs5aRqRmseA+6K4n6Zr06QYElUfI+RRz9KAojE/ilX4lGmdQtX2hvjevRxudNHdG28crXaavWeUd7FFi7vj70I5CnT7gRA5yUo9NN6U0J//Q7X3wlrKqdC3GVw0eaqpRrUZ6c4xYQjGNB8//HM8a8sNMDYc+JgQZ4iVAtTuLex+8ZHTRXpZ5ZYITyLPDS4U1GgDU9VTKTiieSqTlOroTX1eBTEcZI5CNeP72K64EibMf56LGR0thhVDFXGDhF8nx/3YxEpAxGo6czM51GEsDGzvdzFdrvqC7CYd12SJV+Ah9ZcYHFDZ/cfN8rWk4nBU+j7/+PvQjtPHIs7F9VPnvDkt7A8+cYXuc2pkP9X/DPFOwSCXv3XyFw7jiVSPEv78MYYVoaNBroEpt4D7g6WBewukNEqCwQLoHtyPqcFaOcawoWK1uvsChshTszZVbCMKuTvMgST+HBsP7gv2FKZuKYOPhXlin9O7JEOFckSviAwQDWIYshqhYPlFa+Dn1ePPke1C00ZzJquhgEkYcZTfxoraenyab3srl3vRUkRgFLDKYapokuUy2w4w7NvXqCiTIw9lMug+EdoeRWhYa26Dv1EaOKgYaGjf6ragEMpO7PsMnVlvegVsShvI8yc1q0Gx+f9N3UJFjX18ZsQ+Bt4ThilYorkPy9AMRraKgO0PZoLcG2H1fG1AqzHp0riYOdvWMIayPWeC3mZ3Uqz4/qpzYRD1TymKGx2z0UKUjNqm7lTK0iBJSN2mPVt1E+PaiB5yllikMjuf5x8A3Xguz/EWJPm3A2zsCWWTX20nS4Dnan6YHUiihLr6SI5Svkz4vnTYAg8SS9CKxmDmAGc6qbH9KMC846Oqscp4+u30ZpSYZz7KaVBwmx8f1e7/WNYPveFQ08D6fSPMYumnLRdTQ9ZbK7mu8JjpCtJ8oCBWvGWXioDT7IqfjET1HEFNJJ0N65v/zE5eBt2jQYaBKfSA+4N/gBpAs03lVGPc0qlJTCD8roD1XQHfqYYuhYuFWqnVZ0UeLAszxEVgPZLgX8pOLyZc/PCKG+HEE/op7N7KAIB2U+/j6Z4MVdeRCuGE5UjRbjs49ks1zHVOgFdrb/E8VBn7BSdm3MOfpvlo7ZGhvlFxdPEWcUsUMLzWmX0UwcYjin1BSKN/UA3kuRI5hvKGw2WVjPhjp4lBNa5w0mG4CLl2guixQFwjQo/Al+tZON2Y5lRH4JSTq73l9j4YAjKww5wQKpvRrTiMLI/PiLosqUH0LQisMiJb4Untdg/Zz+7R6lT+Gu7A+z5aF6GlMdMWNbGbNBKfhCcLzIfuefx/n8J3cnkXn70PeDDHnpNgXBhsNBZqTVgBH3oJhucv6f+pms5Fj4RkOsyLTQiCTYWs/BuNHZgAtEnDA1XJz80aDhnZ4jBXB1l7Tx2xMZSZj464xkiyzqryoL7iCVIzgBNc+aip4LkhQaZtbbhcg9g9DWGJje7lDBCeq8/WvhxLQOxuo0+jQYeBKjCA+4OAf3+zQN81hm9o9NgEMawL6Zxzw4xmYSP3hfMR8eXlqyiKGu7wa45rBEbjwS24bCB0edAsQsJsyuk7qZq1ZT/TD8h6QRyMDxyLIuZvAm6QvY6RjUtyn0aB7jaX0pBehhyZfKHaXGL5+grbFSrnOs+CISml/kJFUezrU/leI5u455H3f4Ux4CVpI9OM3J4F7JqTtI0KZyras15rnTtQUbIGcJ66t7Woy9nbNZ7kdBDWqjugJ306d8zoIisgdPu+VqqmPmmHGaINPAbjjpBpOgYzW7STozN/SkWXufWJMqxkH87zBWJjghyWbxeFLRilZxpwcfCkAatSMtCwPLc68K7xxH+jMPR8R/muhYI6oDFqiuxeCxbhiDoAedZDde5prq4UpO7aTt6dwWyPuBHVOWRmG6Epwdcvry4ziVeMq6iPA6Av1Sqht1/wS2m3u37vYnQ4Bpbjece/UyFeS9fXha6hF+4YL5Q28GCWNARSGvlXoSDO9ArZzXROUq/lfmIP8xnRo0GGgSptgPuDf4B6pBGIz8/OSDC7spb6AAmA5PcmuUwCy8skgb3+U/8GvQGpkQsnIHv0+XdtoPY93NSEY72QbfpwIvL7u2/SKmAHJnehbxiM7nBMbV0gDYjqmIzDx5ed4nHMZKJ8R8Y3XJGJRjH+Pf8xQZB8rmWEy5cwUfR9NxT4TsqQT/4QuyxxdDYPbjUojv2fzvqR17WtEPvSR+4ajL70VbVfd2OB6J9JZ7tr3WsObZP1wKpOXYk+R+URddgN3e6EBcXYtVHzoENJI3C0iy/eKEM6SraVmZQ21+/7IQf2samnHj4/lYfP4uHsatZDl6ANcGn0jTHc2VsGhTGERoE4UC8UOCZKv1F6futwwCS5kejmEn9FFYS4/L/OqqEFGEz8XABQSJ5Tv4OJDN8Z5TknR/7yoWJzP7WZngsAGCtmrJhL/BEKzb3KDQpTY2DrvcShuJpOYXW2PbISwgKQvpBqZX9NLOaRqPdLxkE33XjC7TtCoEMclm6Gf1z1og3+NOhlFivhT1Wpo0GHgSqogPuDgH940cvyFRxxVl00y5OAx1gumpCx58dXTph0l0lpR0WEeHKnvIv/lL6HqOrTeK3/5P71ykoqwAHKek+Ii86HkHZs29sr9Znht/CAqXv3RdizkOYZVCMMuXS0s4lfGjUbWYdUY2DU0tnSbFfjxfTrGXlpf60PlfRBtzqzxrnCzgOhrnksdxhKHtsQ9fiMH7Ywov5738uRpcw5ESzXSHFg0QHfdYCaloEdY7UGZZwAuVdIwU3ijLIcl61h6JwRrQdxgYMKZw9K4O9Q3uA0UlTiMSqoL2dZXGB98BTygn8qytwjfsrrRbh5auZPUb8tIAxzf4BNlsTwjXHGOHc47O8C5z9/0UgdpsAfycMnrYyAsxgfxJe3kJF8nL8lbzstlZtdwTJIDwzlvI0SvuRbV2UOmps/PaZGbDpOjrUcoHhTAZLMAmWtYuL3Z3keWOnJrbjYy392WoY8KKKts5s1rE81NTLa6Ixpjrj1hIaJalEJ/9bPONohjgenDo0J0++CqSBW1qNBhoEq5ID7g3+An8pFjrDr/JVuonzrIX/YKvMAZg698b5zAhg6chEM++eOyJF6/LGAIw3/t7M0QJzRMf6yveVg3KgxQAaiJQzp3M53yYGlZflV6Cbw8CVPCBjirZvb47r03wSOjDsWYE1Ghw+EOiCldWVyHLuCWNwlZLeIF5bQL3+7DeEGV0pHi30QGTE737pH58vf7vf52tQN+MP6/MbAGIX/MEVmSdKKFrXCeM1vPVaZUqvcdGMR0EpA+myTPJnbUrKAdCZpTNrKnVJf0qA9/dctXywT7zSMxFt9HOgsCc9dAEe5uhdqIB/Pz3F/ijvm64F9ousMXY1htsmR9HK31gxxN8qB2oFvfblg8eI52UOSAaVlBTU9+eUGWosUkZjJueQixHb1TuBx4udGyavTYjNQGEKZeVlR55LcqMQj5JCwKghxtXyAgthNdvjovFOc8LP5X+GWoOiuwCt7ipOVMTfzzE5E7aFtpkuF48tMmKTJkuQT3h6asStq+uJBXyFH/mTstjf59qOMgSsggPsD//7//v/+o4yBK1yA+wP//v/+//6jjIErmID7A//+//7//qOMgSvUgPsD//7//v/+o4yBLBCA+wP//v/+//6jjIEsTID7A//+//7//qNBhoEsiID7g5tkfb/XjVxDLyOgFv6s/vYKu13g2WJ53wdQ6ueNh0z/RvUmS/OieghfHSmfGM6raY/LlKxXb1+dWn+S2+bFJk2VIl9Xvh4sulhM5zhqDRBAAo9REobk1j1ZgypITna87yYEMzNMQpFvuyldFXkLZBlW1rR5smC2CMPAKoajq0F69hlQQSslnEWzYsgd19kMwYE/49CNW2RZtATAKH5ea1uWE7gCkQ/FmKIF0zYlI7GFd5IbslRJteQ5urGe6w/0SgRFj8yzXhnk51hWf/Tsfii6cqEqPK9OCI83m82lemVMD3oakgF8KnCQQM1MMjWLjfTnLDbznr33dec9h/5PGapsffsb28rP0UPgjHjq4n/pSfkhbJ47YxzERkRXWffzprP+TaOxZsQhox1sBPqI0CP0NJB4q2rVkxJAAAAAAAAAD4GsltkhLUmGucfwzjU2X+WanCyRmxoHkRf7gwHhAIiIjtXxnInvIxPeRiKkkn/gAAQA7xAAAABn8SYQ0XDcEaOMgSzEgPsD//7//v/+o4yBLQCA+wP//v/+//6jjIEtPID7A//+//7//qOMgS14gPsD//7//v/+o4yBLbSA+wP//v/+//6jjIEt8ID7A//+//7//qOMgS4sgPsD//7//v/+o4yBLmiA+wP//v/+//6jjIEupID7A//+//7//qOMgS7ggPsD//7//v/+o4yBLxyA+wP//v/+//6jjIEvWID7A//+//7//qOMgS+UgPsD//7//v/+o4yBL9CA+wP//v/+//6jjIEwDID7A//+//7//qOMgTBIgPsD//7//v/+o0CmgTCEgPuDAgL//v/+e2UkD/0zMUmGnGv63s9tFvMCT40CC4yzh1Pz7Q7Vq1ojk3QIX6mL3xnRbPc1lF0TeIDpIoaA4YYCol7mk8odf9QvCmA7Zr5ygDHWKu1vX9dsW9AD76qDMnLRivoPnfONvm9z3hekDUfjDU3+kFDsMCbpdSQ0q/t+7y7NPQ4NqSlwO1WRkXez/lhxi23nJvoLPCn5Knvjwob8FqNBOIEwwID7g4ujc5nwJrUgageGJKQE3Zt1Y8wqeTD/6yXOWzdLBIa+XGBztcjTq8sTFMTC/2XBHBHvRaN2WiI5G+G+yM5MAxtSMm0Scsm5cAM8vWmfColWwqDwreTm8EwDqHwbxxlZVfNNhpcq+J58VKwTRWmKIuEAQ1aRYtSOCBHrlHR1FF6GEplV4sQLetT4P30t4HzxI3lvYx1cVO2s+kYllo6I41EuE3DdyCHCJNq9I6BOjlBevH7qH6UVT+WF6l+IDfV/bMy5oWVCoHPp6gaC8U1yHRd2UsA0/oDY5OT/IHsq3y5vmIkdJZoMuWa+pe49/VCfNCht1RdmBsakbaIxhflC0W5X08RxnOVw4MOXmJGxa1pGIvJ3iXD33pqWCLGvigZ0mnuyOpe1tDWhl+f8NIzXbvz//qOMgTD8gPsD//7//v/+o4yBMTiA+wP//v/+//6jjIExdID7A//+//7//qNAi4ExsID7gwIC//7//n3vtUcwOHcw27Kk+idldsN2CPok0sJghgFhAdAse4d7tNX6oeN3QKT7nzVnWkkAb+X/WV9ZO3PGnOAAHVBASJlIndt2wEVRTXfcZjqOZJY49F1G7OVuPmljaIZfRo5+YKMUh4EYDA66IaP3+EBy7AwCnd6X/U/wgNkmK4OjczujQbqBMeyA+4N/fz+3k0lJagY2eQthDAarV+rzd/ZMF9Q0548al+g2WsDEqZuZXBVHM8Zsarjx3gekYdMkYrSL+Xmx/3fFkELmMyUQX7fUHWjL9CokSPt8TXiX5VaRBGx1pWns/4tQ/qiSI7F1c+cZXISKqOgUm55tM+Hb2yBtI3XDfWXZpjgzVyhRicB0bEE+u9Xdr2lvovivYECViLGEk1/PrwpWdk0XgCqXjslLQMAuGSrInKUqLJAFDJo8dyrURjtzn/miCc0yXOFIK6BZx9XvPluVN9QfpHNn4FQY9QjOtzgbL+9rfVotOIp/ZENcyFiuuuzD6716hpiiMxsAEXRb8TM8A/5FfYOjX+J0zYtHvBEgU7FUiF6+2wUu0q6fuRqqf1lS7YLC3GvRwZfT4+Q+bbJ+mDK73G3++znRWdiJC7aU7Dyjsc8aesjQPe8LOi3sME16Rh1SKAdzCgOa+NgY06z9jzSZjV96SUCUV0drcg3wCymV2NMZdZwpvq1MlcLC49Si9ZE8BG8N8l88Nf1Chwm4xOqbq97WrFRUX10sckwb5LLJ0Eu2sRmqpEFKdXGwAOvUoDA58xNpo0GIgTIogPuDAq3//nUygcGSIEcW9NEMr7Fg30e9vviIKx3kLgn2jOb/5gxBUuUDYEnMAuER/Us/Vavh9C14JYZ8Prt3/j00ZyeR8bc1kqVLUbUlsF9lK0aw32rY8AhEJhzlQtLFhGtzT8lP6/5S2w3hWtxTA1c7qXl5IzCD+1PMflqj6yMrsIdWVKVCUPLSrRLN3ya+UkRzkMv70bck4YBpHhZ7NAMjdyYXrAVJ4us/RbF07eyoXqIHf0ZeumaB4xjfjviRzI36eDhJV9rT5CLQeKZ2vuBrLtWk5dLyzn8JK5zxBtk+Tqz/U5Jl/s29bosuuTcODUGM3mqecb7twFAKT4R6pWUjtlEGu88GKtjt5JwcQ8q1GjT+rTyyGUuD/tdoWc3cGDBPHpaIBXn8imcYnsfrx4zgP+CrImTs1A1w5BQai32yjV/xRxnKWvUVdXSTasLS/TW8cjrpU3wWqpvw3BbVcsRvHtcpIp1Vo5kTOialg+lidFw4hOUvjbO4Rs9EH/0PZ721n0CjQYWBMmSA+4OAf3sJAFdzTGvjGyFvd04WC01Nb8NHz8uFTu+0iltGbY7k8fQMeK7SaepF32p6vAt67+MCsAuYr7iTftIqjXFv+o2o+44NBCqFO4Ahys+Qv9a1bPzDJOctjtwb2CEdoonygJiqlXxnWb7F1BA62DkHkgevkYAgA67aEIywWTE6ENiwQFq7sZErXi5NwIontfMGqazbdUBraCCe0LLGceK0a+ar1DbVrOcCVmd2qYEQPbEx7S47FMCNHVjiIE/PhjGGTaRWrOhdZxSKV1Tp76RGIw1j2A/QSc/HesAewUWZzNKFmDfBPF5pakztQdWaRdufpbhzCO+//fYiS/geEvSrwj+7LGYFl3UjZj4wTtxz1dIbRu1Iw4ZApQ+/t9QF/Csd6t5arI4Qz+DG7ZdXg/pTSnAcGZgvbLLj9hnfKMdGT0CSB5TAKlrSsqIC4OL8DCHDofptiPSYcHgkqeKT8di6jIFq+Adg1/dHm8lqHNaiZKFJmx0Mr8z6uLwi/YbZe6NBiIEyoID7g4GAPZ3sIgKFxKzZ/dAQMcww1DG43jyqAZjvppTKJRht3yik5MFnDDsWGP/h3IXyNHbFEMZTYq9sEXDJF6HcQtbXLvVS4fECuLOn4BaNOGtz1/GwSJqCVXbuVuBBMm236ZU8ngmAuP8vQ//0oa+09SFyDzMnXQC1XaSp1yjt30h7BA+lUOJAzQcX7hafJJGRMnEI1npi7xv9RDHsPR5kXk6e4ucf1C4iJY5HXYLlSkFwgrUWML3Te8FUq0nXYmkfxL1kE8k8R4tgu4VDEhydDBohEOJ9h0v2JVLrQdYLuGgtmR4/e2DZdcuzX0s0kc0vy76DVLsic/wnbnF/1N2DTgM3gzUZbnVNu4d+XAvtuJG6+3iYWjbYAQ+fmseWOlDtnuQtG061ty0VQXYnjkZGavgSjColaEoNBklRJYfGW4zEFmM5FMC8z/JLX47tV1tJqURnQ5brxIjVSk+eAdqve+NrMZ0Nqqwq9uDEv3bCBaMManwV+HXXByrHo6PfKB7tYIr6o0F+gTLcgPuDgH9Rc7cPOR3zg2PxFlnIprNTkzJNMvEh1DbClv7XToSSVr47lKcLSMRrqvYgpJ9le1gU2Ba1p2O4X2M6OKV71FEKtthOArbhtJxUFUouN8KRh1lrrUkDScaesorY6hbbFsIQFXiuj6hXh1hF1Ir2dSd7M0/XxqKanCY8a7+7x4e/rFEUP6uEi9bj+roxiiung6ORkDnhf1eyOmjbQIBiO/mjskujLZGd47uRhIdME7bIr60bei663jZoGLpZoYE5JmeflkOVHP1vC7rdr7DsRFWztV7BdjC380NoMLmfPxOgLmMY6PujlqwpuawPDjrfmFl75+Ril6wWgPB0eQ/mMEhR9FnFVrNM1VZh+/kNewNZLd37p/phuFFpSQFfl9pjovL+f9rCqBootcP6XE/pfbMCZv2dzREqgv/cNqKKCYySX4zTXPMjcz4E9SrDQR7j5MCSDFHW6mK3AIq/tgG0p685vQvNjr42D0zejIh6W2cEzqiVuZd/2qNBUoEzGID7g3BzUnpQpfFUVSSSd0Bg9skcaBA3QqKJSqQmoRYvUjOukxoUeu2C4VuBVULa9k1AgWPCdWZ8uxbMtHLikc2LiJxuWu29Y0FtSFezoYbL/BISLbHMsqqVZPN7Qu9G9JgeH84+hvI48DKPLchmqVzSYTXR01Gpp32dimE0M81nR68k4aaI93Do29HGj3ewfLLLOpUyP+0U4Jo+N1rixiyAI3/GcEcD/7qIn4SgmMluwDNVpRzMAV4Vjo9Xy7X/jzgRBROKS7cV0q9LCVpALM1v+dh0hQAOYmzlAiIZasMnF8fZR+/caz9e3T8VBPP/Om3UrEqVUoQCLuKoFbWYQfpk+7hBi//DEVJ1ACf8spV0DwpKgm31dEEPRgA/qMKsPZ24BxF2ME8NFgVUMbg2M5jQEWkm3UHdTbXZwpMeXLKYoCZ6fIyd0DiKtkbU0LLyo0CngTNUgPuDmwJ7gLSrL927FDOMQDht03Q/kocfQcIvE3eJAkO3ltjdYxOiAaV5obQD8gscXrj7cDdLHoY9HSepuvIR6Yg3JiAR8r9TxKMIy+z9Y9zSXXB7kUXZ0nMlFo+jmZ6qfII/WOMhdBU7jBzXaoPocTH0xcJIvGXrwRZFhmAGnjLqD9pejNCnqLeZSqSIwrt0LTDqZJapDeC1dHY88BzW6//+//6jjIEzj4D7A//+//7//qOMgTPLgPsD//7//v/+o0H8gTQHgPuDpZ9xiNnqBE4R4kRc//V3rC1EJlAOSG+3rHTXLjGQl0na8gKA8/2yG9xDRs3w9igzkU70F1W2oWgMgGgpgbi2R6bgO5UsRtZ4VsEYlP1xHkmsLUi+K1KSLHgOVUUi4QWGR+iI/H07w8AjL6fkn21kGarzzoriRrBEOIHr1sIeDb0K7SJGGY+eZi1ja85f0T9BVjacRtTQ/sy4miGtWorgUT7BA1mjDmRr2kYfeMjqlGfewwhCtpxJtTJ8lIE6EOtfGDq9mj6HzAxQCgjPOU8eGjtzMJIoyhGMU3YZ/IV9relNzUZO/ECQJBYmaP89vsnQ4VucxpLMaUW/zN+6S1k0Lpg/y8GMOZmyWTEV3/+gWJCggpiFXHK23SAMzd5RbvW9bYdP6/ol7xltnmKjT0H2gutyWo5tNW45Oj636QLPbXhNtYMw72N6SiGoemtwPvhFnwiwu55TLsmtfuvZesR0XLcXl7da8McQNVPcfWbwgnwOqUBJIJwqpAaiBT75boT5Az9sspXRATLRvORadyTPxfpIR6jhnGunoCrLdvEGAZ5Dc9g+qUkzAQVZvYhgyeJO7/P0UenzxMK24LauBKUgicwkjpTEWUqO0In/O4iNQGqhhHVS31DiqbiXz+IoTZ7UVrqEgYrWlNkwnGbni6z1iACIBmZprqNBkIE0RYD7g4mAQm+V5Ed0T+Vi1M+si+1aIXB34vY49QlI6w59iTht8N3TmyJ4gxcNZAAfyi2jcK26xyQR7yAKjWy1cezyjEhgGz3ppB3t+tNIOKUqmvan62gNk7sJ5VP6P3zyHGDA7eUHsUWkhOPtz11BI4vFMnc3YDsiFbezGSs2NcYfBJK35SVsBVsxguttmdcJyTspjCgXAkfm6/c3rH7ZRxXq4LLc4hHxDLsvfulKfHR25d4jbdT9pTolcVDluCQ/h+CgpG5qqa1YtwEj/kL8IRxi6e2C9fKg7DSVj4iN7fEcpN6aCvs0S2lXUztwkGdPJVqOrpnqgbw4yXD2Jktf0AvBHmwcKb2irgSW2qvPkUc7gblY/2WzVwYmvbxjePWlsDXdk0/kDqMIIned9Z/YdohjT2t+jEAsToqt3h125auhIoQkxUyrUQizhe5l61RuAmf14Old3FwGBBTJndpw2FxkdWp52mxEBQCSikTVHhkU6lMziKNgQ9rOoXP3EYBxdKwp3o61VSJwycMVcVCjQYeBNH+A+4OAfwhM3elD8VioAMondY2dj4wY4ka553ktkIiEu3uaM7jrxv5VILtpjMRJbFcOf160HL6PIBoDMBehBGB6aWYtbfCMKh3pB57kTgj1WvYeMH1wnc79pwLxK9u3jvJUJVOZewCZ2Wg+X++tn7LC3YABpQgR+NIpfdomVqI4LCl6gTP1JuIJ+3wNG7oQqu97QOYCZoY6arCWoedEhrl5TuL3b04VX5lzpQXWiLiQjHs817QYs2J8mOD/Fp6/cIjl0AjmqesBv3DSQHIyC80MlPtl7UmFoLIBbAJcKFiyVDxH36Zav9wKcLRD+OSrLofJwYLGYOlF09BnYm1qLV5hF0sI0gRElPG7Mvb3GnjcvJXvrjTH8zOdglTiIfF8syZPUUd/4xa6Ey8+6Ia5jWEuKfkhKFUDAeqx1q1ciO9xorNom+UT23QCkdl7FxA4/ieWy91tDGoIBoyeGPB2lzHeudUP1WKkH9Cdn+xXLiZEE0uQyvnnMPTU/zIBokLYA7IWGxAQo0GGgTS8gPuDf4B6IqalYBLaT52ipX6LhJdVMMKtlv6ULxUYk6U+0OPKqvZatqGTyWHcAfm4NjE3Rpc2GnyNZrgoRbnIYeZhOebNLKAP/ojQjvVsAl/EZVdkb+rOgZEfcQC9Vt9nYktNMvQdM8nn2J9+E7y8qAROXN+vpeuElSqvN3BWlinqnR4YHGANG4CaOtJYPIU3ppj6xhsy4E7w4ixRr5TJWyvppAOVnvqkhQXtQdE1zDXsaYFYRqZRdB/nHtT4+Drp0+enP9ycfp/NYwusXm+l3YhMfj1LzbNQI0uOGCOgc7FnIQ8ef4YhIVol6bR/EFFpAPeiNRfpsxzUqdEswzTbSLMTHd93fLBH8RZ3yZumH9hFR0u/OXOxRInXC2ImTh6G99+aJ/i7mrtbp0aoKp3HSXMHKliAV4tmL6U44CVxn5wEwvdUukzZKs3j/qZIr3r+zM451FzCYdTjGEoeX9ie+1bRTsbzD+RFeyVSKlIM9E5IhYBnuKlXhoGWJjIF6JGITfPao0GHgTT3gPuDgH966xX9qbDkm/Alv7+jfUYp7B1BzsOcDghntQcAredkA5i01Rrcb+t+7DjNRWvB1lX1UkKIHUKPD52tNBA7+fPFY0jv/jc36hVtN0LbG+/E4BlAYOEWHWnf+dxfC5+CSzC5MInyK4L0vKnV/n5GMwjRND9G28940HBRt67py14gSHwxC8yWLjgiCb4ryd4apuH2rB+FFukMNtaULBTEZGQgT9Zh+mFgHF3LShVmlO4PKcZbTLWEfgHMxp+225LrineU+ho/TL+dmwi5SUVhJVGYoOAAg7G3bcjihOCaAbo3vaJYlHbCcQ22w+FmJ1OjwnPpqJN8WOwbtKGgkYHfj5J6zZX66O7IZmUB6ZGxaJgpfYOhJyF9oe84n1hxcIpGKghOehT9JvZzosCtD4wdD37bQMxtK6TDGD91cVRVEUby6jbSna0ALOr+C7xmy7GT0iO1uNpynt30hRyXXg/kF1SQeox+LcymS1PCg/FNnO4CXD9iXJnHn3Dcr7PDNcLBp6NBhoE1M4D7g3+AeoEDeTptrhHJgccsNeJi+fcCklIpP+KXXXW6P0aYnqtQO4bPqWRECPnmv+VZ5U8Zl9BB07VTxR57w+dFDlx0Z9kyjwXC49m6Ip+aOjeXIYEHxz17wVe2isictquSyjDCguc34ozfvkzJG+N0CzE8iP2brKMUzURGdhyuXDr4aHeutgQnk4cV2YcCZ7Tr6HdZieKR+yq+QGDIPFKk3UCffmMjsTsRtmPw6b/SZsddv6vdst7MoqH9xHV3ReP/+8Kk6L6bOkm8MKNK9KIk99Oz/iHDMUWzKm7NX6DzLrFJMFF7UCiDD/38zRBzCQ+836tJHU6n5eSbNtFJbx5Q6tHUcabmhvyk8EmUqhbevmNp37fhi5z/0foiN4fpvBVsruAR02cpIwBdds1c2Zay6vSnWO6VR9tLVBwOuPbzVr5xvg9EO9BsVrHx1/2CfI0Apx0CEiAMWSy3Ykck1wGNcwW/AE20OvHpqm8Tdnd2zYv8+3+qEteFzftqyOHiLP2a1aNBh4E1b4D7g4B/RBs6wATeSREVzWOolrtpFhsCee8L2OV+iaghOAcBYKdwCifsbyDwRLppnkIO/gPIa4SHuH5JIBuxuvhRcYZfcAB3PC3D+6BzYwLYisQbuYkDrr+GyBwMuBnip859wI3hdBFk6GpV07h360aHDoGA49e7btx3o51dWhIL1EOjPNUiZvLuzlryJLeutviV/qv1SJ5oBGInWw2Ok9+zx6KQqMcnL+eSFnC4ReguBoPCCLj1nbQIVw5yPghm5mpGeSzGjd+fFct9i5oPjlLCv41SqADj0POpKobRo/xLNmILV/sYS4uWMnP0ibpmodWhUa5/6vZ2l2T4Ym4D1Cd3qCRwfMmjOKGTo3eE9U6rchxVMtFaBgJdWf5rBAJwfAeu2kfzB7VsQ7vJR6E5+IWmnER6kOC1JEbpEJHqczUke1fnFGTO7k5mWx9ikuccGCFUaPeKKog1+drAjfSQnGSUCQeGdCHTMIsv1JR1SlF80wltsC+NzjuAF2q0rrIIogoatXajQPKBNayA+4M0Am/z8KujVItJtGOqAAAAAAAAAAAAAAAAAAAAAAAAAAAAAAAAAAAAAAAAAAAAAAAABSHn5Sj//nXJUdAmonSJtfZhhl3MVY7HATs3ifdG5fMNTdAN0nLUe2zsqRarit3ACo2T6LrwzbjpvLwOPD4PN/dF1wwoAQhFziNyNq5EjjqzBs8ePpA9ADn/fS271VuGMP3ciL21Ee3ZVUJnmGRpBAF/3iLiLnnSR3q+8Y1vjDz3Dd9FqxN9r4Kju1l+e6YCbcs9Xx7Nvjh0Ucuj79UGKGfkIbhAVFWqEg4aP4cpuZLkTqlNpYMLXEgxvaNB0YE154D7g76Mf0D7oVGnFrPn7CsvmIKso5UHm/Syap4mBzCs1Tp6PQwn7oiN1nVH3ihWeV9f+jZvjFZHOnQj6okuIdzlu1CxuTzTjiMcs3nFrBgvXIh+03MA51cOkUa8kMINegpt1m5NetwtJGreVWi+toONBT07Sn3uJ7CWNMqvhudSYXGtO2mrSwKmR4Uy9di/9dUf191yGpNKYaxMflw3wV3BWNIw1NY4w4AdmMdodIok/jFVNXv2oTBxRFhsc/lJRcijMnGLaSwMauAq0kbHxqcJ0JF7OgvnT5e86b1uslQpTUANIVIqXZ7uAE0RSfLXlw7MNowGRvqBvvyc3Kn9b9MwwbbE7hYvnkV0p1pO1hWh0Kz428debsbguUcMsRCSneQaKmvGadBnhP6I25cp/AI0cGTmLahqE7V7nLrE0PSllc/XPSX/niqthROBNzCvccd2dMF/B4HYt5BaHTvfVi+c9FTfoKG5SklzxlZvj7nSxk+c6e7cNNHDEsxcQOJKfO4KICjp9eojCMYTFyHa34+chivgJrcDxU5T8Y7XXVC+nT3de8dGhX4m2oSHh6brGNq+BQ0Y3lwQkmo5tRYcPz4ABEaRwJ2a2cN/Jsvc36NBh4E2I4D7g4B/es4dKrj7LrSn6GS2wpOBOQ8v8thiYERmb31JbuGO4cN/QERwpAxh/CkpcLrFZzD+QKpiooy4fBGQz7Nee7GEnP2sVIIUl7RpfjNywn7sowUgjm74ieUWx+RGiNIxEJaFsR/RBCrmYs/sJBiGJTu1zN3StMGwnffvylZxmJ4zdyV2uIOBNf3OFx2lKRn1Aeqh2bMJFyHn4aEIBH30puiitMrGOowjvQniof7Kc3thIuINDiUTMohRN+qfKlovrAkwcBuO2Tfdc4Y1T4xyr5o/GLYX+omu2r9Euct6/FDo4m88+vj9DK/nIgG2OcJYvn0lcbO/ExC9w/Eq33itXWlYJDcNJm1H+uFAVyHTNm0V32bJmySB+dl/dsgw98ZLCNEuDf3F6cS3cZxxBGBWG+KJ9fh1OkAfE7QjOxS6H1CpyaiScsZHE7N3oteqFLtrcj4nyQxPhEfmccIhbQKRtXpJ8ZcHMAsHSTNfJb3pO3v5K25XlvI2m0AXrXnZQWD5DROjQYKBNmCA+4N/fXqNMxriUJ59IziCA801lK7DQ4EVog6Rpd5JTqkZAhyEPA5YVbT983slFHFv3CEmqtsdVVGP7HF/1ezF3zTuRBW3ZXwFqHCLerS+j156pgEcirQy7lazVbBcb441cYbJ7ZEZaWUsdndG+x1CakF16jTcY+7BR1rtarQ3MUlx5qpQhtXM2dlmup/kxjaISsQNY9r6G2weHyKwDT/FeqRCzy8xXvIuD/j3TifMVXnezZytcZsYWGrGY/F46oSBK8ZlYpUNlppLcVwu0LWLBDM8/rIind/KhfM76JK///6KPNdve3n+NXRDMu+F2Y9mq4K948/C2Zk0Y4+M6xQHC0F+KpD71wg/d5hYJP+hy7wBOEZPXmgVPfhP6Eh7+90Yp9DKRJn2d6beqbdsBRZ68h65k9w3Kglu00hSSQmpquhthISXy/2ee1ykOu9v0pRrwvFmY8fznHk8zh7/IWedB9Fj8HsrhhMANKccZllGUIGTsxoco8G572pahXVJBKNBf4E2m4D7g4R/EC0S48B9cyDbb2ykbmSBZxbCs9s2zy9/YbLVgCydv3KdjNERJxDFR3S3WvuJSy5u6kmaluEu7gLdCSV+x7Yb5P2HxUeDp2p9tNyPyyxvwR/vhrZn1FcsL4JsWbbZbH2X0aHMT5kSMwHwS3LkKk7NcS7WBuGVuf6YYPmK83xH8UeDaVJAEhEyrDpYDJ7Zjni4RPp9SGVgM7b8HgH+Okd9bRyMtpo4KWo8NXQPtFHqRbimhnjSK5hV2/Iie5o1NBmy6LhcBizNAq7ABgJN+aMrWIsjqQKZpWayyvXNMH3f75uk333IfelkJWe4S13DUcRGx2ooFuF/Lkfb0x4i1H9RTyrMgDzAhf3PrTUqW8B1aolthJwb80FeAkdRvKqw8AAcZGS4h0IfblH1m5LEcnIhLT45w9MTpHqtloUG6gW9hEhAyXyvO7EPceRi8DdLnv2U/wl1l2M51vOE/2d8LRnSDYbn5EXf1y09ULYJEfPMV5osvtUjm4SNo0EjgTbYgPuDYVtTrmiBghlIr2imA3bPD8REyiQtJoMMZqFX5GzHqWn8L9RIpPtygOGKPdZWAC/C1cQJt5az05srcdBNMRoGyhKJxubhOb8ROBOSh9fNCXJOcwzWBa2fcyix/7nWjZjUKAwvWmHdB9t2QAg+DfF/35UTs1oT7ydhqyZMj1qDrOB1wvabJTMlbddFpLBquycNy3cdnRmvFbRj6SC+FtIXZQ9eglbx9ieawe61lvaR9PJqfZvAzmaqX9UbFOkvsBlNTs/pg7DSQV94lYsf+20VJSto12VfLxNCk6AVTLGfAX/OYKXQ3rEeyE+Aj3sxPHgWEo7QNKIADRHeDNCkvCIoxX9pNJyQJQ4X99WEF/REwI+CbsFNzDxY0u+DF069o0EagTcTgPuDb6FRh9STxiNDhSKrTjDLB6Ybg0nFF+HimTbGvHNwDzhDuTibi12aRLLpGT3W1gOUtgHyNrqhmSjxzFk0rOqHX3exM0GoZacWqMDPLbHsbw2O7/Z2UXnvN1pK8wEm6SS7LFhSIRJAgk3RAC9/2JaRJ4V5T9TOOYCeMSSxe2ddSKgD4dwIbukJaSyLvqTOzcakKZvG+s6xHBhbQv0Zx9C62vcEcQwmZefpHtPaJ+0WzXodoHPkjA8YJm00/qYFIRjBya2EIC2o4mXk6+at5Wn/lTzymFmngvIqhQ2Iu/mhBQFXJs7tT6l/jOFMSX66djBFaTTCepD0LVB6Ybe2mU7SU3GBdKRe88Ho7bGkHBFAWQ5QQv/+o0GHgTdQgPuDtGB5v1mm7G1UdJegoazq43Gvv4UcwKqfGXlOaPXzGari05fu0y2oWg5KH4gwoIf6oQcnUf5/wTveZc6Yg7fsTRwiSUvjsS9f3pMadlJQMpznILPZYzzINvJH2ZgAkJ68uVu32taFzBClD2Pn5UfTj4Ah00R5ksb7def2FcbQ84D4VJGUqjFzTXRATkCxkzis5ji4G6iqF6km8Jhi6DvCpi3K7Qd7EJ63lcPdotW8XoaEPuXVGHI9t3IX8weEJ/54Olq+clkZWMie6xOXckrXzWng4sJu9JEj8ZEE9OzIlHER6yzYNiBr5bFTcz9jnrEEZUdYP28BiRaPP6d6x5+/F0uq8LqWzIQYm4wRRBQd1LaouCy+fyE8DrEW1uwaQAqymH3rYsoUugRkI4OA6/zIUaPQ+JmcB3UU77Ju4vmuFL3VU7JHjF9SWMLc5nmjRYaUg6+fqs4QZ23QWWzsFp2YWVSJRSFi1U6X1wWnziSEnwq1v1WmIDG/Sq+/N4smmiMVEqNAmYE3jID7g40CfOBe/x2rFgxMc1DfH+fFAkeQ0z2y2Uq2wfUXqcBZ91zv1efjNH0qoqWMYYEYe5vSGB5uvmqvqzO7i+bauFnC99uUrR3MItRZH80DPufYBjdp6ZoO48ps1VSokm02AeDxKzl+3w/1JCXG4ujgh4Q7xoO3ZVBZPw/mAYixtbX9ZCHecndhymox1n1LYlcM//7//qOMgTfIgPsD//7//v/+o0HFgTgEgPuDnKJ93U+QPp6qGdvp2lG5A2Y1VZGG6mUO8OMRWpOTHyDXpAFQRon4LBzNoh/Ah5Z0V27XXWgoaxYlGzdOx3oPS9DbcJ1y40x0f8+Nri3Q5TTeZCvToslc/oZbTWsfT6D0jpv/dYh5M9YMi6RWFR5GgQzyGE7rINhgi3nNNMel2QhAF6bPqa3b4LYkm7Lc0+q/PPaGSkJCGua6CW0C0Li0OiaY8CPkM5y04T83M82MHFeO5XYkXpcC0Z6+Bo4I5qTTaDDku5Wj4+FCmWCJfMEObw8JtaA6ohGNIhf6LVqFj0aoxHPFU97GqPLJC0u2vksNe626hpzNMD95ltfSWHOzAmYmodwODMrwzEYyYzqwzMBdZVuvSzNfrNkpFWmJ4yfjwNABKgKVuS+gzThytEttJ+jYK34CI8UZEXWLvBV9YwNeSkKT5cCGWVGpwYjNOgPPRLqYzl9F7BqHeW/l2fnL0Sa0bIf6XQVzAYDRcBTzAGxA24ZJVp5wJd8SYWabrsk/p3Bn5R33i7xFvEbeuBvQ8eIqyFMmILblbWoofK7gMchBgzIsaenaE+/pb7UbTg5fMUGZ+V0IK/r4RrnJRY6oo0DKgThAgPuDY11aaOsgcNcwL4+1+bL2tSQhIsjkrGVlYYlwab5RVIDgcmX4RpUovbtH/qGplE0vLtoJbpOqbA3+4cM9tnjnSTiFICVb+YHQbdigoCOB9fy3uvLHALwbvilZRG21d8kkaFLfXwp99WaJjCvTpvr2EsQXsrlVoQ0mJHcEVpmcVmZACec2pldkxnaE+ZISrSnXU895/muZ7mXLXBZByJwFgtQcBERA8EdqS/fI00ZaBfXY8ZyD+IDiAIAOPAAgCAvUE/X//qOMgTh7gPsD//7//v/+o4yBOLeA+wP//v/+//6jQSuBOPOA+4MCtP/+ed7HkY/BZsFC2TUb4EbGFUuoBs+gHHfRDv8p82ItynPQKnNBKFAbBpjMdv4ccgo5tS2OU0g4M/eoqQ21NR1n8n48NcjELnOxgG2O2DtEZIIpOYVkE2Rw2PEQhQU/Hjta17/fpSQKT+MXN8Maq7XU7CLjuBOcKZjrcjkV8cPlO6eCTdVuMX4ulK2EmhWZLlqmU+PHYyLan0wB87b3GDFTvT6bDB03E0RgLP1tLYgDXStqQQPxPWgs782mKJ22wdkX2MoKJseVcYgowIS6pCV0NG4Dm8GqRY5O6d+RVP8SPgySn4XDkiqitw9w0LW0t9bFadnHM4lvvpBNNF8Ms599jw6PBHiqvn6pK5U+ST26rr/Hz/FRbavWiKMKi0w3pIuNtqNAsYE5MID7g6UCe8Z8btHWySKbU/g4svbBAvXxhgCL025kofxsPqJKylfNaYtAtSrLTGnOXhV4d3aE8tJwpGHmEvnww9Jt5L+z7Bccfkknip/uw0h9BPkdgAoD6UC8g3dSp8he7f51fv9G4AfsrkSKG2YLbua7qSTAUT1uiFVXW+aaXg7KQOyTsxsN+5d+/0ejbGc47br9CrwTsv6xVVWajCl4YcqE4ZWNpfNdiNVl//7//qOMgTlrgPsD//7//v/+o4yBOaiA+wP//v/+//6jQLuBOeOA+4MCAv/+//5xMciNlWUw7gfzHTy5IM69bnQ6vybZw1hi6Y15fFU5xHYr2OEXdq8eyM4pzExiZnsiBLLaDXJ4FEx0dEAaXrd8grAeDUg2NAHfgj5ajzpGyoi5uzIwkY/YAjwCK8T22DTsLMa/1KHl30AeTRJBUXRK+sBQ1/81VoOVNPNhWcWccBCLcNMaI3QKk+ptSDRedgph+ME9OiUGnGCIBFAjGEvHiNOq0wtDS4xSy+fgEXEDo0HWgTofgPuDz4B/o4S0dsGMdjWWGwhGOoS+Fm2dInBpf6LXqxsjXjC0wrLns6crlMEHj/yDDrIkLFQoEvLcuOSoiebTBoShXt7bdnBYF/HZgM4lr9WIYefRwYRzYwAAq3qNy4QQC3TP7NBPTLkycNyNWuyKsrIwtetgSDQI3mYGk40EzctAE9MSklTolIYcVF2mf0/B48UlebwXX1xVqOQUV0HgNVbHjxhHHANc2rqgz7l+RmEO+CO8oHPeDw/iT/goCQMEu1OQ/qFi8N9Co0ZZeNbnuOosbvR7C+GzIyrIYw4X5JQaxepPtV9X0fzP5oKuBqs/ecLwbbn+5/iOQyXqk6K0xVJc2z/IAO9MrrKM+n3TmFudjROePGycPdvSA1d2c4q0VTwzauxTbFDPEB0hsJ6PcijNXgbq36D2yIE6BwoFtm9Df+JBfeXAt1P8CcnY5bI6ISzupncZptaHNsogyj9a0AzdqBSZGdoXX7BRxqyjszvYYv0ZxATx1pgusvFCjzLFLZ/1jbnFmEwWnuOHwPH6AAD6CevZmmS2q+Xxz+Pm35/Ek5ggmPUK5Rg6LC0I/3uVIwgfyJAy3weBUVwp2rTWfZKIEAk+apE8W+w0/EWfTaiMHyKjQQmBOlyA+4OAf4qAbVDooyL2YcILQSWyHEba5ZDTGZvppSUTDJ9N3dDFOoHRnb4O9Hy5JYjV6Iy94tXNdh7oH7fXFWhhFex8iWeFdxwdrfM+YQ94DTMhnK248Ec+MpNgeyLMW9Pvz+ayOR3rUtEPEIhvjsHrRePw7ARVJ/WpRLhxjMET/8L/bdFQf5bssn4DL0+TipN410Xm7fFSUZG3G9YwIBQvrUYPrJQ6gG5YQXhK4oZG0BsAvuoKGXM/nmMN1zqWowe/qtiqVfGGm0KyoNazGOqrhj8sZXHb0VOzSBy+1UA42v+LA04XfuhWB9XLdAPUJ7HzXBqlix2w5SC4iIRApi9Z8nDATv/+o0E4gTqXgPuDAqj//nzhe5YCUXqWwfa3LPEAhyF8edNh7CbnmP7xirTjv+QNuzybRLVG2fPPEwDiANXW4JB3cqpAHvjSiALV8CMrEwpg+lx1v4NsNDurIdVv8t8cCnHkmJo3gBwPDsQXRXBUKUBGvRBAHxWqI4cOWAi95D36eDKbyqWWvassleNlyj+3IKKDQ41GrwCiEzeefNsyKAfqVtpNqa3BJ5mCW3JYrJREFFXAqXOk+nu4xNdfTTi2FD24gBrEXJWWny3q7ZQaC9G9BqXqldP74GxOCjNS2xBuCREoGNIoYYunRFcDh8+dHveXrKYeUdAVKOlMUBKsCeNsyWq0xKNAM1EA3PcWYm2T+7rJ3KyN+eW4vXEqw7s/zDItLikIyZOeVVp+GQZDtkkkMvDA0QK7i+ZP1QX2o4yBOtOA+wP//v/+//6jQLiBOxCA+4MCAv/+//5+40YWbOlff6rSl8vVg+VkkG0sy1W4r6bMe3y3DAjZcgzWXqBBruh7fZzPdxPn5vXZgQnT2AlL6MzOtjfELLGz+vw3mpruNJJjLFw1OtcFAhp9fIofju6axPOsiT+3GFJE0y+zx7XYtflxZVgNzr3mRx7pvOmpmBXci4C4i4HK/IownBTnxw0u48tlh1wlfAhzIqSupNaffho35kpxMdNHM98UNEEgBUSRRqPVo0F1gTtMgPuDfnsOYO/mPjfFm8bMtFq6o0PAkqsuFvhI62wyacn0ODNAVWkPPi3lqoI0FkozCmexX4dq48186NiwFuwAKkzKL2N4BGhS4dyMZPpnCjqbQefBGLi6DXCRXoCiTqX+as0TbeTAV+CPLBcAd1QX44JSoU2Ntqeh3zF/s+N4LvU/KclbTLyiTZ+ht7Fg6u1tUcOedlyfUeSC+h2yiDOUAw7hecYLBhmCZycjq+zhvCz2XdSvE4KDfemBoXKoyo8/Fvn7waQIt+ov1JjBPGwYhKyR7PZ8ZDCeNq3yZd7s/p9tH1J/vqd+88PFpYaaiJJM5PDh6fUX3Yn7PkbmwD9d99ojzsEig5z6o037mjD9HHL2BpqhHs+2SHLONKZIlzNsOir1NgXnnGMSL5XhNGWurkvspUvWzW2X9l3enTf1ej+2ze8vjOfeOc4OdNZnPiREYv+fwwESQjrXazLuWsOp4GdyJAcQ3EOWcgH36wHAGrgpq6NB64E7iID7g3TMUAG21uU38RNa2QhOXDqTX5tjJ4JIfkaN/B22zd5PoVOe13GIzg35pLcr34RX8x/eEGt8SGpsS9C+ULQE7yx2UXhb7EkA0/y7GVKtP+qS48uU5x7k9qJXitW6ylcGrLykPnz3UfeTkd9zdOm5fMboyXUM/0F9rTVaeWYHkLYJJIMyTjvCvR3Uh5K8K8fEMaoF85kbxnQQd8yq3fSBMKIGaSiO8lgxwGOR9/0iyGqY78sDRRcM7NZhE/RPQljuuS20BRBhG8lwc8skTBuIB9p06i4uWqs1dJtCWEGFahhvXKgJOm2Y3BfnyAy8iediGfSyfq7caPJo6PCcfQJxZrV7LIGRVVTuhj+/87XHnSFm5Qu60d+bh0MyLneAdLgLVXBmnQeE43trmMgblPaufuy7Ci4c6sxivd8QV5hy8cZWJL9169UBR8gjcSgV+E33QefCv6bdJ+XYUHMLc56iT6IG9tiwTWe6Z27cTElNzKJiWnSOLsvKx5DCrp6UX8Gdq5ZmpNoMb1ylNpp4csjAX7DaXxmrFUuxx2fz7lkM7fWIubkhU4PHIXb+1CjCw02Ho1Ewa1YwR5AlX2sSF8WSV6bxoQGb8NB/92n2DyVJxn5+paTPwpUYDA4TCCG8orY3sYNnSw9eo0GGgTvDgPuDf4BbMCmOqSKtwdYhLcgNhwqPeAA0IAOW3NWmcSnW2TQQp8gpjNLHc5+OgnLK0bjOZ9H4AFiCe8RFMUwtS8ZlcBmKm0VeD2a15IGTBAKchwivk6QxtAKkLBo1kuu1j0riowPZ/WW46e+NSpHD+/gU/d8DT/NJEj0OQI0WT7Ov3wh9O8pYW/fLATn6V01ICkCfNGZkIeIvC1aZc33IGVfrMFwM7PdB8Snfzk0brGtwYsjx7yCwB6twMnCcCpXIjUba+wzcOH/qAopJfDsGF4inQSIHIaN1oU9ZtYPK70uCw4fZPJPLjb2b2UnZIUWQLX05MxlE1WMnxUVAOeb9hPssHYtC8UgoP9JGgKBleV09/zSLVAn0BgtD5Pg4wUT7zrqUSTGX4ztBRQoszqe3iPTUZ9Oufh/1d8qVeTHuooO4cncgq1y5D3xNPdPxeoN4A89Ls6irP8vADvBu2nTToEUvv9CDxSJjmhKS6+DCR5xw96d9rlNhPV8K+PB+PoVdbrZXo0FdgTv/gPuDfHBuBPKb7B2qVHam9Sh0x9yZiklN1jiDAtK+H/tpyWUq254i9IgpsyM7GjXqO97sm/SrpxAxl8jlVMY2KtVqviYzyY7yX+/FEjwR5PwqnzLSGywhSb7XSdNYwns7ds5XBYrwNYTsJZigekTCu5PXVhAkyVzF7BttSSpk7ZpdUD9i1xlS6Vb7i1rH/4u9RfZUK9iZcRZfNL+rQ88Dq2hE87dBZxfVBb4Bz4gTGIPYWB9bYd980LN8npz1tnsDUY21WM1Hfhub7+qrHcaJsLteM4NqZsNJg+wxUrXWxOMzhuGmEQgpuBVf2scqvfehL0PwE62uqiKayFtnQ80DCtCDom0diU5lcCpUIYmnhFZry89L4cEDCteU3C/cdzceQNxWEAXru6RPqBWeqP4DwmgkgEOf+8M8A6lHHJvmN6VEYysVAQqOv0dlIPo/Bzig2sy+Wb4fIzMHsaNBaIE8PID7g6MCe6O7AmMw3zztkeLMAFRtthilV4O4CH2RNaRD8DTuKahsCPyEfguFVrT14w8yfBLfc31mgDKYQoUWtPt1XQiGUdc/Rc1UaberB8LVpUoszn7zd1wKM5oAT9eadHFIML3/EjlKOpYMBB5GcavIrmTQq8VBiQ+zK+4YI6cIDuRWti43htlvwzDBdSao6I7dpQonMcV562BDuW2Vn6+HP5P4QQJLav/+fyuQj4yBjYYc62cnAA7hUiID6WN66tlYh5xKXynKbDCoNPPrvy7wbM4fqzIqr75HD2sa1WLjcrNRdKVhQ2F1Vev2Ci1xHOsnpweAH1V8oGKLSpU8n4RdZtlDfBVVkGyulay5YYP+0WmJXENU/JrlHcHUQuOr7h4cX5jGtrKgU3OXqWHo8yD2iAS4ILwig9JSDuizhJ14JYi593cmrw1p7n9GQRfBQqI6o6IaXoZ1OW2sTqgoTQx9jdjNJaNByoE8d4D7g6SOejc1VEo8TtT22zRN8jFREpa0tGmqOvbWe4khcs7zk001+fdeeF57JBsR5gKEnwvWOKX/JZYRSHmrRPcwK7Y3W7EpolvT24u9L0oSpYJqG7GVzjuw/FOUIqifxivOuWq4N4utKbcmjocQzfzinOkzYVWCk9N9zmWPy//0MTJBs2NA6MLP0MEjSPH2qTVZ40MQ4CSGSrmas7M2Rj2+JoRYafv5Lpk8+juuz6psrWK/2MTXgCvHUdXDsvIfhRuMUImfbsi7w8mx9XOKzzEIbonGc0F/YM6ku4GXJixdy/Yhp4FCpp3OKE4eI9273byEJ1To6CZVZ/77eCGKY7h3k47moEhTqzjaFILxjoc4qBDqwK4DWOl8XW2kilO9LwBa4VAYqg6UX7fqbu/zZpBKXpVRD3XjekaJHqUCcKQw3REcduu6mpbXe8rHFavroPuMkDYZpd7VOkGQRFZUN9aEC0EZ6VSSuE6AIBz3uEuwECTMDynyldgHWSmisipIDUbRzaYgJvMEHD+3GGjr1ZqXyAyPawPOKwq+Jn55d/RJVPTC0vJjxaHpCyE21aq4MUbGmOaiYf+gm2CXQlbgbHmLQ5GsGCOlo0GHgTy0gPuDgH92IND1wSjGNadaGiAymh2L3i/hEEpzuEF6OEPk4bBtdAKYavKIkvseKwNoztnOiFdwSMJvGswmnfRT+FUlurp0G3J5EpM7irPm96Ow+oUtqsuAEn8/sYDZjTFALFPMx3vvjSP3NtJBzuf67Nt50kImT5oFiFqQh0UsIW2oxeaoRnpn3nY6LblxF2e+nWG0r6UXcbGJTru3R5rVcGg/gCHzIK6M/qYeZ5AIGIUM2DY/Tmn78IF7i0ZlL1CnvgBCYXH7u9J5igW4MaUP5l/pUl89cZSKCH08UFMrBVNmoa7vMlchJZKcWHVyhNH5osFfJKA8ds/Zf730bm9Xd+1nHN961N8WeCenbId64Dm56GAy39vDCTFtAsp9djKmITCha003VT6xTdug1ZHOUaqH8yn//Q7kKZMtidTbys3v2VGuveXOBTvivzwqA82MQAudZMGqKkrkL3FTvJhRQGFIuwPGJE7q1WwCEqeJ4hdUiE+MkOOIBFTe7+ySzG3zEadDv6NBhoE88ID7g3+AfGBi99FkTQJbeacOzdMhsFEFf9Mx0k7C6KM8OMfhFT6ixdfM/F6Oh0hlh02vWL5dU4p6DeNH9UQaJoNH1BrnPVeNtGuEuhza7AG89TNIVGXEvPzpCM73NGzPqaLnSQ7thAbmEDEhdUjF9HuvziZQ+MRbnX0RHMQ0p/iEoxYAkHJo4OFXK9YDmsTdWpZ3qK4ObCYssTUtA/0YYngic4Sq8X9f29oCJjcsaYO2Bu9He/YsJqJkDgN/kFXENuZZ0dpXaRkSH0GzYaoxinQ+syUCyNGKKVy7PKpEC4tPS+AxkNoDhC1n8Kbxq4w8OAXFdLrwSse+4tg2AgDEM7L2GXnxebS/0qwEVD59uKlYqxabLtjOTeIxor2c7Not1QkYb0PLVRlfJJZC3l603xqDPl9waojd77uZSKNeUDDv9l2octnTSr60c1b92YNjwDJ0gxp0b5J+eTZoGbR8Hin8u7srR1MN+WWwdtup1mSw9vDyBJMIIdBFfSZuLDxFMrLHeKNBh4E9LID7g4B/e7MZ6p8Zk0DgRXcX0filKkC+t/pWTDhyxHXXkHdgkhvS5VeYs0phUcb1cJaYASW1Z9mBAX4s0dwRTJTT97EJIk2OHn3TMsdhhJGzoO16NfXs6IrGiAibX0okvuXeqa+FHXW5FfSRxrdC2f8yQDjp7L3jM9mm1k50PrRTUjGNivh/6J47sU9iZ39GTMQ1+Hxno+TxQUc++5erTBijIJgyoZoEnFT7RHLPlT2mj0S3tKFIhtWfSKHNo9/YkiPOF+bpf2EBX1Lo4zRA6GvYp0NslQWPBTzVvQ3PlqLCl9tjYW/CLeW/qYQ1W5+VIrHC+716720TIBhp1Dkc9jeTRtsEfp0iMi08eW5bcgogOTTs4JKyfIqYzHzGOLq0sVK1pqxHTiHjNSgd054/vEI/yFgIcKBTOZ3hJC/gdpVtOKBOMb8OzUpI0G7+2y+6eqmkQ6oweO4tpu/EijVaIKH4lBYrQ+vUzlTsZHWca5pUTXYt6CysfvaVJr/4W/4LLyG6DpSjQYaBPWiA+4N/gHyaOWCE2OSXD/Fw+1VZC4DfCnP3ePsL3hwdC3xSIz10bwalKE3+1KQqnxbGJn1WsUXjqjZF4VCJc2Dvy9XHjYiL4/33bKIADB5PClURSthEVau3/ccP6fg9b3tPetuFspsWTcvoyUXQ0Ya+XUEHKZn8k3bKg0b5dZAbiVx1QSeKk/k2aVULW5wHuFiVTCzYSw5iM562pkwzvspLx8ZZ5FMUJcYZDJazkeWQiUAo954QtQw+zVoN0JD0c+y3fJUUNhI4/ij6oWf0z1t37mjb+TrIc1XY6192JH7Y+/OAeL/ALIGb43fK9Wr4Na0O8suLz73agEWaZA93wfB0WSN80FntCMk0aOR0iiliX+bjL4OLo7VuKDU4s1PXjIBodxHZx1xkMy5Q8fjSxWiBd1pFm5CkEna+iZfNi498k5cu6SNJRFkPfL+tWj9FRXJ88VsaAUP242kKrpoDwqy2jpp/w88akuAfv9RYbn1x/nIe4iS4iysHJ7hueW/F5yOtZDajQYeBPaSA+4NyjUUf/ktoDsFm5tNrRviZ+DcI+MLjlNPN75suiHFr1iT1WCRuPmMFuJZcjrh7puBT7elPxdUoTHuLHgDNkq7iIdYTmScLr4X6GPPRdrEyTQlNc9uzOpT9MwUxCabwNeBkzYGms1L+LLNnLvWbpmW5oGWRIn+FBzzlv4BAnSfGZd7Dq9S8LxIMTQOgZOzbGX+9F/2bpsHHv4MwSmvTSuFhuWTimEHB35t0IUb/jgFQkGpblJOegRrfOtSCmcAIWjHTnsiPIFDfFTe1yYDhiO4gq07rLdgVaB/GYq4dHvdF1Sl207HnbcYvB67c4VSp7eRSix1ERcA1ZidUG8ikWaA5w30d7+GU+vePE2o3iGX4qLqYUoNG/b8IbAHQL2KxC2Av/WoS1JZ4QzohPh+86ZFzvJVT3WSHsSYNAYr8BPOxsuEMgafBpiQvPOYLOxqQeLyIRHgyoLsr5xABELEF+XtQAEeWFc6n36MPZ6Nn1qj0jDltpgZdb/oeSB7RBxcQH6I6o0GGgT3fgPuDf3uKOjmVi4e09FGi9FEoDX7Wf+hVpLNUYTvNuf8tRnh7LlO0h4Buni9mHlDVQA+YHSyVLkZ00FDII53lAXpr3NXPIcddXCvFkzuTETxkPyxxrkHVBbgVrMWeEWtp6Y9JaFz4pPWkW+T3g/jZPj+z2Y9uR8lEMye8ox89IR+CAYDiYuL6zj28t4rCIllUYjGHn3NhutBpYa5mLjsSQVvL1hXnUEIpOGcFEv2eQ80teJZfDDhprmhfLm66X35O4gH7fGqkztGIfrW29xteK1YKkZQXpBkkYIxezoSa81z4RoA3rohW9gWYU8IjpDx7T3Ty98und7P+d4UYLBeCfOcn51s1GVP+0wzBiJY2+fJV7htyWJ0LCWryq+u7odMHf5krOqY3IW9tM7WfG/hlJTp5cBOpquCzgdGOzo5xT9B4HTU9G3VmbKjJqgswyg8QZiQ/38C9EO4R+e+qmjOgddC9hNfgh69ji2ZtcvZHibK2DAj+LPvfasKnEMFsWezp6Kyro0FjgT4bgPuDgH+KpbskVmXLkBCBMQtqXI/m3Drkv7Y9W/AJFbTaGlVaGoIGZcIG5dR6XPx4L6y9C8maKpkWllijF7Om3d8+HP791MOVL4njeiB3MSVToBjEUy5WEY3bej/OYuf94J/GLZnfGhjVA/n4m0g5L2wXlaFpOeK5uCDESycuTjXIK9Xi6IprQM5s5GmefDOIGEIUWUfl63HCJBJu2lhfWxgl9hobAbsnOGBedea6MbtOnGSOPs18xLY+SdTXx3/j0Ur1q0buSruOwmrhaiEJL+5MyKl1E9fvbLuWYRxrKbnS0z6+XSEXblL8fIU3MLLxNs4rCMX1SgFUOQ41WhYxTCKqdGKIB/oBgNyyvBFNL+VcbTf8O9GqD5cYKZDBaLnYeofkYO1w65gKuwjWGDTSZEWRAVsBrG5cmCS00ZxdWPsNHw4VDDv8YgHQF+bIqkbJhu6aEcGCFRg3/PV1w3FTYKNA84E+V4D7g12MspEptMWV1zYNdknc0lkXzqbugI2OsYwIjksEX9cIT+l9UmxWYCrsIppMqwwZFkQFbAaxuXIDvBMZxdWPsNHwgxWw7/GIB0BfmyKpGyYbumhHBghUYN3z1dcNxVeFf+5+8XrTSXcLkZnyLCZCdry1Ku2w0HvwH1nzfWaJWpSLZBqzW/UymNFeNpW2oiLaB+HP7IwIkICW0DnwxkSBTH+w1LWHp2n0UK8swMzo0xhLD/cOo9e1FNsB2yTrewvDWyS3gtMshpptEzFNAXzgegwIenJLHqXFACgBiG3cPXv/d/QAD/skCQpsYq7//qOMgT6TgPsD//7//v/+o0HggT7QgPuDl8GKdZIc+rdTmY3XBRime8OPZjpsyTc5u+GfWqlODXR/NNToBcIT4xyiKzFt2lRjS40p2X07aMtywbwntATsU2R5di59AFxEdm+SxYzogrDLs0IiF4u31rrYSxU1Byvs/eCc4YdNAHBAIT/f344kXepCewWsg0y8r4K4ojjT5GNSoVKxDplzXVikuVU7ukyOTPY+OcNhg0zCfnUOCTkG7AFcKdUNbML9wNccSem20+LrsmdL6AuQ561bYInYtnp1t6VJlGFWzh47GhuawEPLwifHrEgOQKo99BEEx4etS6NBhg8UXNKLz4ajd1EC1awRGiiTv2E2rT9SV+MMTZgl7UcECLnneAE54+/mb0hKmVPabIXj8v0SThSsAti99IhDplAFBwBmF5EFD7OJ3du9ciq20Oyy9BivufCsXFZw1iNNsp0Sx1yA7gHcj/WmfWT79PLsVrex+Igbyiq/csibkGHfHl01qMHtWpUCh8YyB5qIqqnaqCphKc69/g2/73VgHUtMjuRXz9t9h6WMwxQ/BEIdhlJ5Y/Pl3tfNu2y9l8vKynBlxUX02usisG/VNZw9C71MJrIrq1c8rcZ6bVthkEti3x3c/7Vufq6T1xOjNF7UrNLSPDkpzYDLo0GsgT8LgPuDlZBxXePW/mR6jwksb7g+VfC6xYnc0/curr4ECKsJ4UGRMa5TcKKw/Wte3KBKXVsiYyoltJ0aDo9GQ1nkfcLgnQ/HeVwGICp5nDGV70JWILGZV6W5nTOqMlADkazhs4ES+IeuhjLCp2H1RQXOf8BpZomVG2HwaW2C7QlQWXYsPh+aQUzojfxom5dBleuznL7c2Zrfuft483Uf/7UXttvHtID3XXOyiJp3Ehk0j1ohf7CodoA0nkZUI4VYiFhPCpJB55cHfFPRCrqQfwpKbRu1+d0uVbWKspcGoL6RzjvuTXM4r7sfU57B8aAvl01u+bX0pHLouE7St97OxAIQ5x6w/nIW0yCNNMo+vfjL5sWmxyL/UghwHtVCwGd31PwyNGHHNAtS9A0TaXcckBaPjHa76GJRrzEI1ve3znnZhVKzxp5IlT6tkxms7HNrtvWhzu+cD/iWYCMxsLl5ftRuSSnZ+KgMB0w50Wx0LZuyf/W14T+bGUCmMKFQ+VwDDNixfW++/tv3zkRege6cIJXBCR+suXTkj03uJs6fzoMM5e1yRMm4EDOqm3KjQXOBP0iA+4OAfwfoWObj/ZUytGS8ruGaO7UTjbqYgB/ImzhPJCcMWp6GeD/PmbtAuvUT4ruO619kpeo06yI39QbRLgB5DoC0HsPzBIP0gm//vMRrVeddQ7AkicbraJMXC78tyK1+13QHRyX1vh9vqpF1X0t7z32LTaeAGzk6Y5TH3pYHSXwoEU1RF686In10GRF/IMv14rz6n62NIlanPUcTKTs+Q4vsRnG0Om0Hn2R2AbOaoDPi/VF+78sVkxRN9TmvxZO1sXKhxUFJ49oc+ZdrNtMOKjT8FP8nbMVQYKiH1rQ9VHuSe6oHC/hdI2R/G5P6eYzymlTm983zd6j+21RsIsDtKl1EFls4rF2X28OaMGqGbJehL+NkZoXjjXqSmZIrBVOBowr/cKt5+bIiGhS85b116WziHbwnNZ9RzulG0TV30J3jLiPpSRiWdJmSgdYpfhp0sChKna0OhUkZZyfgQtK+wEsXgh1ma49BIs4Vka7acKNBmoE/g4D7g5OAfWRjJfiqyjvAefRCItKzfmoMUiegQ3i7Qq2mxKS82B0JAlZDLWPGauD4LGcDG2jruWKdcBwDwyg34zaAE32V6wL5/YIWpkbwVPTSpbI0hR+ydPeauj44y32kR3gNCXGtsxiuLADSCkjKpSCZi5iHwuYr2UxiUbs9WN8xzKo3wzhBDpDbCTCXHtglHQlWUURafuVACM6sSHSipMRKQbbyRdKXB7Zxec4kinh/EcEydOkPZvoMimiifDj6MxXJ7OV27EqPObAglbZFXvL5mpNyw09FIw2omjYQ3voKRmtCF2GD7ncJl3ahedkK3juvQZ/qT8qivR4jKL/0wk3Sy2xmHxb3fgkwkwaXfUCDHZ9P2d0TTVgvRZyDDo0pkP2y+sOODuIX3osVaNza2tMlV5ShCoQV+UyTC+I6QEtyUxCGgs/4szoq/eDKSRWysjvDEHajwlEz17xKjNqL+cVFCJk8jWg2w2C4xGr4pt8VSOMJsz06Jw2/qKrygc+eRr1XXil7INHeIH+YyBHa/MVs2RAXrwVso0GHgT/AgPuDgH98hYTnzAxJ7/CSk4EfwqARG0n/RltLfploa9pAoTnWfzzJKEno6BXZ7o+8+K8Gzc9nGXpAAuMVEbuHSCURd//9W/V9UOIaRdTnJPcpaPoiR2hP0q2TKSlBWZI0AlHyoLiH7yY9z4+Dr6VIvl2YIaKWbGC5cI6tg0nSjldYwUL3QH1Y4LMjzZXvWgBZXrYa6UbMR5Uze5UUAmw73NTThS35J+j8rQFR06zj8fqscgDuuh6xQzVLqaTJFt0Pizh8f3mTEj3Omc/Bku745VZidKgjhxkc5lU+Pu8abEVfsaN6tTt6M2lHIm1m20qK2AJU+xBZOrprlOkrfaJZlNi7N+2J5gHyAFdaOEtOh9nYo0KzMq5IB2ZEdCb7nGuy6seVBMO5iwtVcqs2teZZ3XhXwTxz4JG2Jk4T/N3CCE6yLDtGgXj4BvyK7Vz+AmowjPKX2YTHJ4ltvMEvQFe2k2Qo1Oh0PQQf5fMymMYDd7ANFCO3ZdIE+Ox3NHZQnVMnmElc3qNBhoE//ID7g3OMZI2mfSzDJl/EoNF/L0YB2tcIqiQ/Z44Z8q/shO+XTTl1XWUP6VIlI6wD3JPnu3cmXVoXir1hWu8UJYVJK8MtbQ48Nd44TjP4MpGF2MSEk5Skg69QrSqM/BwgoKLjeJ5GPfw33bDjFoETZspt/xRXoGydjn16W6dPNoAZalP86EHpWn2Iq2O3+lO3Lnoa/9TKDu15amUI/Ac9AOUSUa336W4rLV7h5HMvIIJZOLk/nUxoFnRd8rSzvmKO+/so45FuCNkzGkgArJN436ll06CAruKCfiiFsXPGSf7Y88yDk3JQkBo/RvjcNqwkiGh77WOZcze0ABug7011g8NZly9tinUqkBbZMi15aQfpA92FHLKUITDLntL0I4OVDT74W9/Jz3TkEXVwoa336ARiGU+2uFXcR3Fv76BxGmRqdSc/hSB+oxVSf0qIaiYRF23j+VqV0QykLSll4h5B1nmYBa7jj5AyG9sa+eZjQRL2HprjCFLtJTxY/XXdEJCfjLbm4KNBbYFAOID7g4BdtVFDgRIdn6prPWpBvIE7Bb/G0xgx6yB2pAQDqoqkq56XMXX5RDtjeQBQ6ecT88NDuykCmq3qhOe3phkTy0hsfeXkWDdu2pzUH3bTBRdc953UNCDw7numYlpi8gwWgJld75uAADzmmASuKWwAAIOgAGf5IZJDCVv99FY/5l/X1Qaysl0a79PScaYxoyphKlnRoJ9s1HtNDVjIrumY1SELx5xxctSxe/Bx9iEfB0N2lRUQx+I8vhyB2fSg/YumpVGFE15iR7tFsutsyY3gld+uNPb8rb+vUGCWoA2IXYOKaxHt+vQUw1CGDlwMwUDFVS9iJVUUaWu5WQYjJGJEGrjqY36sDvcuhrtDUXEL/oMJWQEHnLr496IQyI+rVGQBF3+MPPWoLFBrzdurExWMfwsHuDU+jMrth15FA4UtvTAwa6PwvAb9APPJuwMogKo88+yEkhWK1a2TjMGs6pxsCfUnee6bI3Axo4yBQHSA+wP//v/+//6jjIFAsID7A//+//7//qNBj4FA7ID7g7F0eL5w6D/kJ4osNIS+W6WwAjCV90DFnMPIANYoq6MOAsbbm5z60OqBwVhIHKuKsRU5JbTEdtHZ8EsnFu34/ynJuBgK0ZLST/cXop0oTVsbcLXvZkTH+88H7IoFvmJbsSLtZWTNdJM+S/AWNQAkZcyW4s0TEa8S0scsyLqZm5sFjwI5kvW5d2NXX/JOk/Tuly3FFcwXfRt+UWqnkFXdIpvVv6blhtOeNiGNiPhuYvzb8mTGRmti1/FDOdP+i6GxE/IffISQFflbu06V/hof7gPKs7mFhE/ioCt4am8Us7clhDCz6BNwOIftbP1YiYj0KeuG3llMBX6+LkUPCVoLFUXdtbFAcwx+zkxZwj6Bo+Ru4vlRaSH/7EpMzqwm62SPekR3nlvuFmNUSpMbkGFSXwhUuRpyAE0rqBbhvLSwRQpmWy+xIGpkakbe25rs6D9yQhPNcFQ81xSZq74wv7QRbqxLRWmB2wg+PfHJ/uyBkFo92XC6LTHh7izeDYUQ8ZXF7GU1LV17cM1BXKNBiIFBKID7g3d/YBdBJIbXaMtA7uu4IZfMYNB+m+1n4yxSntyTkbfKwRmH3Cm/BAqTE6T5x09yYt9Orno7f+GvMlTJIjWN/lit7NEdYhG8QEcINiiu7QEk4KkxDS9qlosjReF02vy6woCYD3zPzGLDWLoacL0vIWJfcnoWmrKmluZZsTtPgWLFd+WUioUk0f2gN+5oTmeGP2UKQS6l85FBQ2fDo0cnXFEx8I3cce43IDG/pPiEtSWAFfA8zKV7o1uaSS+6wvUqdReb2TsNl/GIv9tWffzvei++fUdjt/gZbLhFvfQps2XuN8GMvGMbG+/LBarlHBVf38V92OFVo8fFfP4Tcu2lwj7R36k3M+Za5raE7v8ok8EpoU1NzG9VIGmIJ9u5+pgIDEQmkeyEsuLIJGQitSTZ9wO4Pp/mI+Ga1E/4DKuKaYyXlfCK1CsgfMObcOyOAu9hIjqtLneuC/GwwfjR7gC6Se+Ar7/yTpCAoINHACbKZRPQzOR8SVkJjM/oEdqyIbx6gUfDo0GCgUFjgPuDj49/+I/dRpaEgRUgiLIVHCczQSanPD27VadA7vI25d5Olvg2eN6NfPPOpc0l9CkJqLw9Ho/zzUVcswemlY7UuiOiXa8gloHStFtw2LrSzciUIl4i1q/1bdIlGtFlLzwnOJzDfUv+bdMlyxZNOBa2I0Q9C17xrVtkUFeN4ZMaBc3zvUrR5JVQQ8kMHCfrAJQFz326MVPEL9u0j/eB22B6rBzPzzNtlXf12ouu4ibUqQEK/1O5DN8trwPFWfEO3KOm70iknzizG7rExfGrw43wqCNi5kYlwzulJETq5qVSam6CELzM6VfwS8VzW40s7LjuP8dRYVxMav6hgJarYDErjrZVrJNf81FHsgXcxChTXmHoAHuoHexhpqq5afeh509FYC+LK2vhgcLM5whk7s6ZSaLrGzF+H4MHcyyTEmhb3ljwCZKjNJqmR/sNkUm/p8G9TUERcSI2Kg14gYvKC729LUfjmx5MAS7y5LbhbeHnxT6Dhn6kh9fEoOnzd6SjQX+BQaCA+4N5f2EbepbeTGpFOFdtBpZDKdR4exaHRk1Ivg5TbGWJQoxuEfZZJpyQ9PLr3SOfrBqI0CkSC75QAePew8J5Q7UmVX29l8AEkbG4fmBZzKDZZPuqCGPNe4UupY3dyGlGhPY2GAL1UqOhomM+nLsmzhV7miqhB9xtKFHMjf593nxn3oQcECzoBF/QBTcXlmjv/94IbNUwvEm1pOZlT5VujQ5utbjaCR8gikVCJYrhauObBCn2M8gr9ArbJ7pNrD6nFQT374H6qtgP8U/EIWhCQZSubmSDmPFi0/AJJJHvXHsMoVRKFl5v7gLvodnd7flHWmm1Ahk2Uo+/PC6zfe+PiGDSzacZ1WfuJTjQ5Zmc5Hj2KCvzV4EcRDTpsjKEKWpvAt/ZEqQMlDDWaI0Meg6E96kGY7HzWun6MBZ+8TaftsQRTwC32fQdfkrkO6YrqmpvqgTB8B9FUAFvlm5owKIcszZyV+nubaSI+DXG7pBDbe++Zrublyx4O6XDZaNBhoFB24D7g5Vw3ww0zV4g97u8hLDDO/VTCE3iuEj715GZRbKHaOlxkCb16ariS4+lTAZc+TnKnzh9yiQ0WtaDHoWCoEEaxtGqBsMVYOUCrTf6dUkHpw8iUDtN0xuVu0HBzb3RRQsLtz2bMzsGjpj751OPezwa4+q3pme80HPlsDwdiLPKSiA4qFDggzPjjLrn8Gr4jXo1f2TqacIlqmoTRqpIRhaavzyks+Y9KYiSi7vrQU6Hozs3vfTUtAVpRjRQRbcjZVIUhFX9vx4B22i6GP6G5dcFyIpQYjx75i5O5pRFIMqSS7CGF7yILOAAMv6M/DBUUL3JdQb2zf5+EG1NtPEmaGmdhwyklPZwLzNBUU2abc/V2cnmpsKKS/dTGdpgvAwSs1qCRoGZfeWGCAd0TvJGXXaCtSZDaU/PUQ+fV7fnuaJ7fPAAgNnBjJzo71XvdJYZomRrmNVOrEGHk3A9AruNq9UVKL9SgayBpchGd2Jz6K1O+GZlyZG/V9O417xCbhQS+8B/BaNAtYFCF4D7g6kCfcWvVXsmFfSqmrkyMTGZBw7IitIArxmWIZGwtsqKsrMTFEYbE6h0q7EUoownUsTsGg/P6Ldo5iDf+fGLw+cGp2kUSUQjlmFqQV2gZZ/XyMVEnGLnoHDIGJPJ397blvYUgQMlMoab+7wecmzTbR3/ph3j9LbA2GYfVioZ5wqi4wZO1VWqz12+urFP6c2D6lTWbDVKCAEMN8Pd8qULMtFyuiD9LY4M08g+F//+//6jQbeBQlSA+4OxfX16w2R4yWiPQAKyxtoKU3ykx4pAEJ1X0vBGwPDRKrSnEikngBYSbvUjrn0fYcOljhK494kZSdGRexAFkxlVUag+96D4JDHZcj4vLgFKAwkbuvYIyFcPqHmm1YmzAgXw8I6A5etIt+1ZkgAY34HwFbcs1pzh374vT9AqMBuWVZag6J2rn6ORtwqS+vITljaPUnOeY8Gc5+KpmF36dZT8IwEtwfuiEy8Wyl9xFNxVrAQUwkrw5jnR5jaJM9XjlTy4r1GIXWa94YrAb4i0KeUisD0u5v6jJNR+T43VyBn7bCZ72fHB5flq/VjmM+nfZpl6mQqbJXc7hpR/riGt1uhDvhd7BOw4lJWpeoUp7SD2ZmJux34/Ww/m/jL/QGtmAwTHWPAwupVWXZlu3UCEoHItEeExNxTAgpu+2VWJ3c4K6BEJrKW2wqdKhXdau8FhbgttvKF3+IKU0877YEAM1jHUexwt5/d9peYHM2ZdAoGdrTIhSw0khULa1ja8NjMufa3cgO6qZGvcUKMRu26pFzneOFRc7xBdFx2fvi5+Wf9hazlVS5hLYamxU8oIChbS3jUEo0HKgUKPgPuDf5AUqxu5ffvmx2/n+vtCAf15CS+ZHXRMzZcDORZ1KrVxB+Os074s/ttatExqJ2+kn8TyJm3RiIrP8hBDswgrsw5+I3asBB9fWPm88JYdEmEa05ErfOV2H8EcRU9LMtAEIai3Miqc89MTNOW5Fjz+x7M2zGf5Lr7sGdmV2Rqm5kxMeQojuErGMAqXMWg1MOH0CRzf5yO3whS2zx5E0ATiD9FdtxK766GCVu1DeWy2iSU6qxrth5Jlmjxk0peVC2G8v8tMD4R1I0jjVW8RkFu2acOIu7dXtHnwlRIsAMwnE4Rx0d4AkL/nx0ixd4AYWNZAauFS2n6Be0rtgEZtcQWT8dca5N+YZ0hDmptdDkVk7jwhfeJQfSbzamFWIxKZwhMTiU6kcWnUNeDOd6yRm5lFos59FpcTFjzBfHOv+5F8oliPs0Yam6jDHGVSdDjAVVFxswl9eAN0bzcFUOjTKWTnK5LJ0nbdXoqX38POtbxxOIbviixd416DNV76fBDHEiTuXI2ivm1IaRxhT61SDAbom/2TO21ZAe/qbF0AB7YUovT9lWnDo3Kk1P05oSr5brCq5kPSghDfB6gqI00AANhTW03nUPejjIFCzID7A//+//7//qOMgUMHgPsD//7//v/+o4yBQ0OA+wP//v/+//6jQZ6BQ4CA+4OYgH8tKjwsk4ktz/UwrYoTChHj4zPyN2xZ0SDquDwNTIyN8oWIveiMpdkenmLxN6eresgaqfh1DYefXzhfvBCjTMSlSNLpq7qM2QpiMVFlBoDSZlQN4sunYKoQd7Jj+n/WOxqZUoiChviemZ+0TNPWApbyJJRD3oLERMuaIRebNjfkwmNHtJJH5VbpWETm9rU0hyRryc1n5vYmaeYB4SlxnK4qJPZreQCATuTUP557dJMBkrNUDiYf9JXSeo6qFGLyX2NN3HHoybTOT1SEDQUR7KfBBBKRYc6grEKxlci47dM3IzfXb/t3o9H4JIB6D4xcqy6IGVp5NtbD9yWO1SYeJ1iOq3xXT8YfGfpCX3YZhUhVX5FZ+f8GzFlp/xhpxnEeX2033Cci/P/jIjEqHWjJGKKuXcWKuMJoBJJfsZsCoBdUzJSrd1ZD/CIF2Ff+Xn2L0lIC4S26X+EGN8PIGIdPA7bwB8+bUpxOFnAamusS2lnQT5pncZA5y/aQdnjmfOABRSal8VaGG5rdymoQDpeFHwP9ClhiISSjQe6BQ7uA+4OVnnT2/zT34LtgZl17zXHawbcKCeSos/6aVLjmsgYKs/l7ZsmMqFuJCWWrB0qH8k/mkH+j7E1N+TFVaLevTJTCw+Pwi5gJb+fXfvn7sV1NRE3dv2KB/70oEHeQrgtIsAee2egRqL1VduPT2fxt7AyzsRhRy3O0GLRTR2ISBjYFiSAb6qeNiAbgf3xTp5HEOFsZcVi4FI+1f+XUtEm8zoPR8Stypg7GICT+u4mTfyt+PMH310C05drLECSMMHmDx9WhlNnFfEyqxDv0nQLhILio4006nWF59LVOCdCcSHQrHwG48adk/1HZHgSmrZzKRM8YfHPW5PZ8ej+TKKlApva+jvjNtzovJPUTj0fkZvhEj4htArRCYzrTDDy4SVLiatplGKekEmWLGmu5m5HJ14TQjbseXcJ94SHaUpwvELCv5WV4NVqZwzOd5Bo4/GjWe/oYV8aDlb4zKnnEpKiWP+sYcNCl8ijP97CJbE1GgSu0WPmbIyu97tOd2sHdYJ9FuhSzMCZ55j3GreA24Vt72ZO0UjBxD+NHsZ359sPIr2zXC0X2JXQhBEQfES3eewX0/yUcxHMKGlWxAeZG2kM9N6QVsmiw77kKEmkxP37Ji8Wb38U9bKewjEVxs3Menb7/R3LvXEFyeaLbg6OMgUP4gPsD//7//v/+o0EIgUQ0gPuDAn///n/2Fp3ND5LdzFQQnLdxXSVcLc7IOoFrAM3RL5U0EqDVyf+dWchKv8pz3xZI9p43ixRo3c0Sx9zLYhxAAAAAAAAAAAAAAAAJQRey+quXIaNLwBvXTYXdBof5ekCpHPiNvdiO0jEdpE4ZQE4plG3v845xwi4RfB/p3ds7YGayJiJSdiH5p7/OKFRA/S+GlZ+phjsExA1ySEOTx5W6MiMMKJfMVlJVswnVuqFfGGg+PtB1x0qp9BUzhmaPwmSb4kwd+zfVJPGrnYNSAgCwdL9TVyWFsC1QAqUiWYGLBEHqduc+A8rMPEn19DkzpvAuCD71HE0BeKxE6YdahUryWB76o0CkgURwgPuDmAJ84WDNTnAI750xw0nRM4uaSEF9MyhVYEsCet2XmnDX3Tn+CiwXnYALCPRkntblpkIwBvn0KIkjEzCdqjZJA9zrESWuYp92oMOmSJO/z2jGhrVYgzQFjyopgvv1hwESZe+tfdnYOnzNBkI98fA8rwpz+AkNH/QmZYuYfaGsC5Wj2UhsGK0p72UU1tqdbVI+MENGnWC9ijB4sP/+//6jQaCBRKuA+4Ozcn+ebPd6M9fu1q8xpH0XqxPEl+mvz8ocDEfa9xcu2M7M+J79FwSrj1Jj+cFPNjzGsfQKk0Dtop0po7EuXSTb8uQuPNYSwxw9CW7dWj7BIcpDFqPorTL5kWIgvWn9Y0/9k/Pi1uUfTkdzE+8Ntz1JpfMsUnlGbMUlRdHxzSqfENYH7NM/GDROY6NNtCbWaAw9/RtcXe2DHyMtvk2vKVD+0qTC8YVAMSKBB7xQeDugijlT4jKsRCZHSniOFppEIEz1+Ab4aumj+FVf81SVL4qrxJrfHUnrCLNfrM8PyU+QOz11Mt6xkdP7hozG1HUmrvpyqRI2LrOVVdDvTuq8NptYicrqQK06fj8iCjQ3I1IMy2beuwF8U9MHId061Q8bes9LZt2hDio7WllBVtDtKMuXhhjJUzeQL1aPMf45M8plZSyVnbyg0P0yKomsBWkRPr2dJMGYnW3+J+vllRHotYM30wACRaXGF65bNLawdkjbl0PITPWPsuwiHjLnDttDSMuXeteYlDtJ8rwie4Ezg53mEUnbcawDj4Kjj6PygUTogPuDZgJ/+shiVuBllvOaiXoADTYgBGESljwBicgRt2G6IvLchmGpMuhi9mP/NnEuj3jr9jCgdEzepxBhjhcKbuHNRA0OYybfltun5x4/gB7aow/QGIGnbiVjPoRZQTwADwAAAAAeI05A1qH//v/+o0EIgUUkgPuDAn///n/ypa/0NAsgqVhcEwM1THZU9JkQO5zB/qqy0gwkXfUNDLCOYuwzKzjB25dKKYp8gtUXQDqalwM7MpPrC+aHaP8GcpWjm3r8DwFXUd2/Ud0UZy2yP18EvY0dBL3NHETTi4Hs8IO78oCHiarrb2C7fb3/f6n4RcIuEXnATQDVgExgAMoYLRIuiv2aZkldqhWQnOm/yG6VRspwNazqYB8Va3yqBBpnQSaf5IainTO7Ts8wzdVDkYbvxzMpcBi19mcJxYDalCicK9QdKF3L2awOWCsKaDCQm3OgvSGfN0AgJxzYVQBNNjoDzN+1QiWNO95NOTQ3yplJO0VsOQnpPHe6o0GYgUVggPuDgoN6PgtmfjcEpNH4DUmEr44E/oswJ2I9mjvK/eKfMD5Ox3EgSL4+VrQlz4h0FDLK7MMI8V+POS8HMqgRzCVE5HUx3yUhhEjPy/sObmc9956rwaMKj462l8Ffl/MWM44jFIwhOXwFYWo2Kl51rGhqgqv6YCfK5m1Ogm5oHRKSLumTtEPaT8I+udLgW1CnsOkOXxHEIIvZTr+OkVkTqozwu9lh9US4jy21MD3cCNUjF0TUq9npHahKPCPycoywLiJgvL3o/ekO+9brSMGM2xP+eFQrm4DF9MQARIAihFHEcMvYwUlAuD63oTSlovaV/jGx+5pVB15opWGpvYOm2yP/WYR0jqsAMTZI7KzrqWv94NfmmoBZyBC6nUO4R1IVYmoWfXaHTsPF0uamSwD2GNL0kKZJkgJWiXtUihXfeHgrSjxCqj0jnAVEk41yJygJMaXMSg1HO+UuQLcb3kD7+uH5F40KTE8pkDtGm2kq4JlPAowqooQFECvomVx+BmWtgldZ92G6DsZ4IsGltlzdDnv5bl/Co0GMgUWcgPuDh5M7ZEHsmOuv1aKlstJfZiawhxjzUOwE2rkj8tyUzc5rm9txgr5ZUOWYzBQHWzj5aymM/Jbs9LeUxC66ZsCphIvW2JWiMxJOj7c43Xzi5kBCJF/IHa1U+SNvptbSqK8eNashEVxzLP5MATnOh6QFDwluspketcc97MaUlYVsoOJbscReKasiirJ49Y/C5/JZzuVQWteLVHZ70IWrsXuHXH0zFli+RhbJUJWNGO3Dbl0WUUCRUYRT+3xoaDFxlBuoifdJicBoXzkAb70KDTu5SO3S+66GkrBgncJbV/gQButBo2HXO+NOfXkyP4bNs6vC7KV7we2Y7/TDKBP7RywPIdkmA4V9y1Z95sZipYdQLhMWh7x1my+Fun6oRy9vWzhhby2uY/k1TN2R1BAQoh8zNFpEBkh7BE/peUxhn/X9xNToBvkf/gyAgNjAoX3sJCspAFlcom+OlVwoEWe5jnefUIHURU/IeBWtFTVmPujXpYuSLvRPT6UlI3da+ea9M2g+Mv5rYyuQo0C/gUXXgPuDswJ9xaHnqUPXebStE100VRNlx4qCuoQoaUMngUIaotTnUeldIMyGdrvw8YMARsfZNlqq9jabixInT0iHDVflAdpwsw52W2talan/Omwwm3fqki2EScevd7lEN6u/yyPOpx+IZyxz9zzJ/uXADue+iapZNhzGovT+TZoJhaRczxA2MbcBTK6ogiuQTB0I3HA1J0uIWA2i90+DXwOwBqesCB4/27cgDlYNKBq8SefI5gYDP+nZ+P/+//6jQaWBRhSA+4OzaHlRKfuI8k4y8Y/TBtmt+OEIayix1BSFwfdiv6ycjoqRa1IaYqJT5qR2rICUVsruABpPn84ZQOrOC09wsDXFugWEGaYhVN4gTiq25d1p5BNkP0Sg9ARs2KPqtKEiZrsn95c//Uh+G34edUq7uYJAGkqgpwaqG4VCH7MxQUbgw3lzYD8vmoIfsXQOp5t58oqd/7LRYP4jqJZrjFT4MgZbBVz4ViX7/+5KrKDrcmzMa4E44vHkguKZ+toO/pM8Rd9QCLdSbQxdCUqOJGTcd2TiBzYAu7l3nXfrvYesxMuOECjvE/qRN0t6kblGUCKx/WlzZ/w21uG4tkpG0Q7w856x9DidhN36gotFKPaEmJxqsJqVicKaLcTvf9/5KEAkopmHhYGbHa9F3T/7iI2mAF7fEtSuflsqHpeHGL5FSG0SQWYWhfJOM728yPcMQXlOqjfxWS5gDAQ+QG7zzym7/a04tVzgQP3gi4/DA4wuMXSB6qbBODrxqWZz60/3Q2Slyo2a+uwyCoIOkJhphVAGyLZp8TMQpmQC8nMQ9NOa4H9Lo0GUgUZPgPuDioQBM8wgXzpv0IrAjFVRggajFzgnc+y+x+1gRwkUyjOg0ma4Frt+TME52GzlY7Jw2Y51CfuZ2hLhzzXkSo6Il1ax1H0ws6px8g7F+bpb8DPWABhoF9GUXw3Dl2H/AXQ/LHhEBlqbUA/2GLqcqqL4qm0S7OngomFosOU6YeMU7gW2nS5fVm6qUB6jHUUYl3QWyZguyuvv+MQIE4G1S/+NvUMMyM5urLH1ULGuiHrnQ+EU9f1SGyhNiT8O+3og0fYu4ck/Vm3Vp7xKZTbi7/oh/WVOHf+9TsKPoI2OVAh7gZaKNaLWycYdHrLDn8F5j9PuAUDpgzIYHwcVKjULv9KaioXQHIjZNhNjdARMByFKdLg9kXLTj6QczIZrwUXBxtzTlP2tm4bUyGWLH/dVwQOrOtWwqgR2TwY+zVNsgJONxitRcs7chWgn4frmGi5rMRUQTiOkKzl4EUECpLwQnLZ6PHCFd6qNATaYXaOyzcte/g4/8HHluMaXKNg15ugMQNM7lXel9nrmiXAGjoXy1E2jQYeBRoyA+4NvbFpCotucy+C14WpmF4SZUJQiQmbUAkcvTG0BN3p7y3XlA2cjlb3CKaCBkVdpWBNjZ+BTwpxMyvfuXT0ep/Cth9yWkBhaD5K0MsjDOJuBrIlTEHxNFAIPCQvxqe3+zapCZjK7wX0sph1NZ04XtoWAPVmpWymoRILCSy3M8KOqQX94SJ9sQmyE7+HB4KCQEK3d9e4hp12jGcx9B9CkqbkJKli502Eq4z+LwvRJXcCC5Q8qwcN1oExh/7LCQAhiZVRcmvYYBunVuppoBMGC2r/la7JFrEfLVW1xrV4GX3zIKYssr1W4kR9c9pJVIInKelPgGT3NzGcgUjrJt24IC1ke3ag3fluHYryPgPTJQ0ocKQFmSdgBJTwGQUamDBAih1Q4CQ0fWkNdkKpuq+zg/Kx6X8qF8NRE/8aJGeo5drA7S50eFZaM605FSHiLjjbq627lyr1lncXfPnJWaqsx2iW4zbxCTN5GX7OwygZvqUpB6cIFl9374ESCjkCOPGXmtJ5yo4yBRsiA+wP//v/+//6jjIFHBID7A//+//7//qNAtIFHP4D7gwIC//7//n/uoRZYeA9ibVgW3bAXM00G9ip17M+swlK3bXVQEfAwFfpnagN13w7WMRqCm85FjMvgUaNQLjjcLEePeSEl+nhWON6m21wvZAnij7lAhP0Y7gQW8Ugt7ZZaHHr1y5xBXGF4tNDRSwyEeW5AW9DrA4eiybkj9ELOV7AFeDRzxokil+VjW5KYAcQU26lMM6lMSHOs2BT+872v05CqENL4SgJQW7XrzNsGnqNBi4FHfID7g4yBetVfTUaK1h3ndr4dXvwIQr8ua02kd9iWkUKwQGI5iPy0DGdIFVfbcUZlTJFVsCRvmRjA27tFmVauVjZ31vlhvowwZaOaiOO2lLKbaKOKT4F4LcUUHpyyeAW2LUqmZqXUUv9Q3VX8AXV9iYsCg/mIfx1I7I8RC+/wFyP88+ojGQtxoT3fdmx5U/EW4gkaUFl0N2NUteUGbqfLrFGPxsArV3uy7MSnB6rZSs9o7/oBZ6lGPz8H4BQ1xhk4/FRPSpxffqlpXU89AC3mkkfh2tHDMwH684W83jJafpS4Ry9D7fEuGF4uEBeizbuOB/iTbTuC54elhisEC9GrlxDUGBHnOyb1hdKU05b4sgp1EFhSTUoRMC+MAd4vbsn0HoGde+41dBnPDzu3s0CG2vD2LqE3EcYFQD5STmhs5OCNZvzcdbFkersMHjz17+TgN4uXP3A2gcksH2YWcDAIjkG7NXIw8r3ioka7cQf2iOYr8KNcEcB78UyOasNiEEtASxtmfBGtbCz1o0EKgUe4gPuDZ5luIDJP+vbmicQMgEUbLGJ1+G2qEpSUUaJySUO5yNpzizBxQYSECzB/rbC6P2qWfRQfPoEFGQmlkTv30eTJhOplrSCRjbqFnpL45sy+oah9iHKHyl8M/t9kdLSY4Rw/dR33Vdd9hQ4pf/LFXzL4RR4IubwWVy7owpTUVfkkbRzInNK5B+0Z2PF99TRbs0ahcdOU3ytXPguYpTFjwptlpjn2l/yl7CSlkoCJ3B1wW85MZVXj5tMyjEHLlkOn5DHggSUnoR8ml1JWzze79OkBlvyO8Y09vbBsRv5RlaOKKFo3iOPfcSKmzvL2H7k9ouWfg9ibzgUNfqSKYQF42WQVm5Au//6jQI+BR/SA+4MCAv/+//5/+8Sb9D4LKtWzlcu8JmSkFZJoJBAsgdZRQrZ4SD+6Y+PUGE9by6tPs0vNRUWaCNbuxLs6RSFEjKg3mMDWv7AAAAAAAAAAAAD4zbzSypGQ2AzKvhymyzegKjSOiiuG6/QXdOBt4qX6lJUpgRgDxNEMSIEwNvt9vgByKYAVAPaOm2B7xKNBg4FIL4D7g36CI8nBlErgb+Ta6sI5MACtqSrlL0AmbuLHd2d7oBUsmmA+GehlgOSaXM78UcavN/mW7bX5Dx5i3FhIgVo2cPWQ0Ostlaq8cLhjYV9Xu+yuZT+6bE3lPrHcUKnC/r06XALrDskwgSz67zgzaOtpurDE791OxklOM1OMKnlcHAwCCE0FyQh1crq6Sw9NfjB4RlS/YicWUA4ujOP7pX4+SNM/nBrvnHVMSY9rYqH8LqJzmG8Ak1vXFGFLz04JMwLPEQs2AUNKWJo+rVZKWcpyDj2p24hDwM912DQvZYKfLbGCcMjIpxRDX/hEEccuCuViTt0iLk1mP0eGnGsFKgqQmFtZJlJ1UW91DmF+3kRYH7LKAgl2v82ygdj7JfhtG3E82xiPvG58t4Xa61zhbzyaPoaxVf5AsdD5/b5EgnpaDwriOjuyKQw857QJFw+Wp3og0t/95tCrodasZqLH17bNSBTcPcCa25fhhHR0wHrXr7R0LtgOyVTum4zahFEfd6NBg4FIa4D7Az1c4hIho03Ci7ird8hUFdHybF2kVu2lPVHofV6paB9c14cNfebX9CUm/GBZm1f7wf6R+bVHFRHh1Odr5slRpLIyNPu0l0mEPC68Q3/yV0RPKeyUukM8Hk7MLWau9BLIwOFQ2tEfcGks8kiLhiKGNVAuThMfQ7ovcPqf23qFvsgcmp1t0ScCjeFHgVDPGfJ5FDMn3nDQb0FhPy2N8NgzczNhFSSf3om8w4EEIq9Jc67LRqD1DqGjGXMqPX70q6FBVnj8WXqeX52abWMnzS9WDHuQO+1tsnkdQqxUnq+lGaQ3CHbIHabbu10/WazHW65IIZkiG8vBMkVfnWVh8a4xGzel+Qhnl1pEoKSuw3jlgY+11DbneH8rNhu4BrQkxiVWiq/FogLsuLiU3WzPh2GXIbAXC5crj3XJSgUpLvjlfMlFA/05xXMBbWxeclgc9z20D/d+PyTHEPBHjz8P5b4LoZmGYCesTZnMn/+nHkB+Jq/u2r/i1FYBmBIThWmZeaNBvYFIp4D7g4CbGE2sgiALOWFCHlsvBEuataMX6TUF8NbmQTTbdS0ItV5to6xgYEvyr/fvSQoU23pZ+HH8B00fqP8BzV+Xrgqd5MEGANLkQ3mPZEk8xyfgHrQ2exJAPu9wGOOaPdvj2RkWjRxyNuau+2U5Ilp69ceqbscH9sc1n7Z93XzIFUiMIUp5fJH+c2qcVFc1+CbjJIjnKTQXiBATCu/HeNQv2WthIkmY7KMDkoOQskryOc55Wcq+X7xasHK4Go8KfspeafCgcJRnfoITrA0hJ39FF0XXJDvYFWcVS4Sd2+HpunCoCe2yOxILB2pB6qP/EGk4