[
 {
   "device_id": "e5a525311893700f813ec0e3ab6ab3c371236314419b998efba9d12a8df8939a",
   "trial_type": "initialize-microphone",
   "trial_index": 0,
   "time_elapsed": 15588,
   "internal_node_id": "0.0-0.0",
   "rt": "",
   "audiostimulus": "",
   "stimulus": "",
   "response": "",
   "estimated_stimulus_onset": null,
   "accelerometer_data": ""
 },
 {
   "device_id": "",
   "trial_type": "html-audio-response",
   "trial_index": 1,
   "time_elapsed": 55520,
   "internal_node_id": "0.0-1.0",
   "rt": null,
   "audiostimulus": "../standaloneApp/binary_ternary.mp3",
   "stimulus": "<p style=\"font-size:48px;\">Sing</p>",
   "response": "GkXfo59ChoEBQveBAULygQRC84EIQoKEd2VibUKHgQRChYECGFOAZwH/////////FUmpZpkq17GDD0JATYCGQ2hyb21lV0GGQ2hyb21lFlSua7+uvdeBAXPFhw30nHD5LgeDgQKGhkFfT1BVU2Oik09wdXNIZWFkAQEAAIC7AAAAAADhjbWERzuAAJ+BAWJkgSAfQ7Z1Af/////////ngQCjQSiBAACA+4MCf//+f/q4Fc37/4m6NR7qjThIAOTtZkVMpV6JgABREod603d3l6o2z26TS19fjjIfvunwEXDTj+d9aWt/K34YqhpQiWBjeixSMPGechLdWkteGJ0+9XLklZKuxtE6NFxJXTLOmBOTzX6s7H1Z7zCV3De8XBcAVFCMBIQinRvZbkfQCX3fS9eKflx17PxCfRzz7A76mB/MB4gUpEarUskyvf5bt0Rig2n1V6v/qIiYEO0G1h6WWW/Ds8OJZ7tHYN03j+9tkg0R4LailQUw6ff9pSXcxmJLuwzTfxsExkqFHCQRp/MpWhQd5cNfGgc78K0RMSrJ5XYTibgyy6jBmBLQ+JopFnb5U5QjYBdkpYCb6FrVIEi9F20zk16xMSI8m0fxbKNBgYEAO4D7g5dwfb/Svb52rvstzFzJg5zMCx1l+0UsMn+zFR+ZioWwGawH9zXGB4UOnE8pCyxJsGQCTebmv548yu5/YNck3Q/KdzLsm4E12GT+c4j1T3hNcr7CSgDG+Kd1ZzGNiRvHs9YduqadLIPL6QWatRgrxQ91b54VPl46CcgINz+OD9WZc8hU2H4hiNbZCxBu+sM5yIlzmn/h2dPGhn3sMcvgrqu+vySNyIOP524CRU9brtSs2EhXefl51/woMqujierF0xh2sM/ku0WV7lGtyD/705oVS03/xN0qmbWxdf+IEA3EUVvHMOvVUJQXhK+24+BmSrCypqZqJzEaykEXgwKibhv53kb89BlgSVZ94jgPv/YmFWQDJRZB6dnNb121UZkDoxxoXWUWDOY3WxSSIW0cHscHSahAdD/RzFMgeqG1jvMZaBlu6YS0in4BUrX8UnKTNO/rxog2Adze46Q5MiwN9lQ09cYhL9VIZWvKiJGJkfW+BxC2pvzBphcR0YyjQYKBAHeA+4Nvdn3fGFJq+mLrUhme/PG9EVoAqhVspjmUiibvT615wY5cIFGJXmVVpMFH3WUq3rGdR/Ud7yLva4V+ExqlqvuY2iTgJYUMv/Cm4n9apZYV0lztWRmQWsQAJlx2ca+FEny9QYcWufKsUVw+vZZfKhotUt/SAvWGnbEQIY9iYs2LfcK/P2c/oh07GakZt18ac/XZCZWSmJEbSXSta5H68UC26wISFe09KAgkWTjCOCNb3wMCh/4l6xFytYvjJfRarZCX6FgE74CeYYVoQocoue9g5szemZD3VqXlKPEth9Uc8AgAeZufmtN93OZbEXc0/z/5p1PrG8Xw1PLXpkQIp3JRJ4Do4k/04t4CpjvLVVzkLuALOFQT+Za1L1Ozwl3Qnc5mPtUHdLCK/C5nQn8DK5EAU3vOUdGBQlxh+xf8gz0gDzNm6uI1FzccQEhRXs7YviMCDjkvbuq9gjJNjzdcq8LtMOU2N+4WwiSLbrigMr+O/yFIUlBKs7FnjfZAmqNBcIEAs4D7g296fex1OFeCPXSuKl8l3NP8Nr+6wfuDPWHBfhzLSu1G7EAhAD/NhMaoJOMuOqGKFOgiFbMnGqC6eePfNAJipMe88RunhOMl+DF6Gbtf4xfFRABxbekPsJVbv/zLxalo+JyxqZsfE6NGGbgxLwgHJsYUffYJzm0Bst4xTKaDKJHbFQyptfog+K6cFvWeME2I5U9Qsv7pm7a5Y7SZDwv+CPTS0Br9XlvcuxjE2L8ITvPxbWj9g9OzcO8o1ZWb2JcffCsGL/3t4P7ksQHC4ZsKfoSs2QyQSkKMH1EW4zdooXBU+ABnTQ5JG5+g7bZ9+RG/vKM4xBvfO9h7lyCegnyUGz0mM/vEyAgMSRUTkTVqRrvNclP9DEpvd2zjJdMFDlHiMnzDOxpiA2R5cmMau/t9ugiKGsi0o1JEi+HTsJwZNfsRhw4zjo6mG4wOqxp3J7LLKlDP4ZClJyk3CYIMwjXaG1fYGWe9UUa5mJuqo0GqgQDwgPuDxmpw2U1lIyYsdl/4wB0zFR9FGx+Tg9yMXK5S6Q8SCQVRixp0rXXDalaU0yjZnsSehQQpwZXThQFdZP7ltzbjff5XkYqd6sW1Gkar6dBmWWWAzhTHc8mZ3zy5rxWJ0IYExO5sPBYKDe2RAGIT8yfPEORTIbGvW5GBOLHlPFrGQXktn2n7eXYdlxhtvx8ZEBgOO/zcD5Yu7VDCDV4QOQgcsMX5ZRG6uGovXcHp8uDL4LapBsTWunz/iDwf/zNX7dmOTGTwvqEFUgRac8ng2h4ZRPxoJjKLGIaEX47MrlIvrOYY0yQNrYXlSmK7X7K4Rdcx2LIdpNEqAzh7ip2HWIA+mIXICqrhYDiTHUMA1lKNecgUsWXjsi1Lcr0an9KTlE9Sv18t+ZeuDLvN3ph0goNXIzEFYC/L/NWmLzeFu1dJ75VFzFhbRvYq2DGU4TyL1XfiDwKYXo7DvSqxld3xl1SqAEEDrLcDKKQVkDHsOiuCg/MDvgFqmgSGyNuEv/m89EC4+Xnbni3gnm9h9HQ9jy4kdWvr/rqjyZ3eWEl5RUGHVdQ6poERo0DlgQErgPuDdmV93mHwyt063xQ9J6QOkP8/AH6vw+d3SVg/0pf/x6vVaVXdCSvYd4k0GwWQuVWwD1HV/hr6VZvHf1fcyFShG8LsNHaQV1vYSsd0Y8risA44VBheMkM3PP+GV1g7l7dpgnYo1QulnkgtNkeXOFND+ws9XQdJ9wnQffiDw5BWScUMwnO6HpcQ6909qSVOfS+W4gz6rBBUHBkEZqGBDVDNzDAwwnmrstlhMuK4fgwWny5ARafOoPrKIxmB6sbFlnBtWXdKABoFlQJRMWNyFq8hpwNA8BwOPvGIRtgVYBj//qOMgQFogPsD//7//v/+o4yBAaSA+wP//v/+//6jjIEB4ID7A//+//7//qOMgQIcgPsD//7//v/+o4yBAliA+wP//v/+//6jjIEClID7A//+//7//qNAi4EC0ID7g38Cfew2L5xvExjTymk6SeYczDSmzNhyZyyUNTkpzJYcsMODGXKye75wvgMFuAHv5Vio72sA41uflewCltxXZ5Vnh7u3AEctfFtC7UagEUOY+oxvsYjLMm0pBblEYnZw8VVXHgAzOdRkb424ile0nD9IOL1ijD/PBRhy9qhSiHWGvv/+//6jQQiBAwyA+4MCf//+fe+wSU5o3TbkEIUhhnNnnm67wAWoPthKnVWCKHVZ0ANLeOzJfhINbvDm0gOLe7dhhDwxJUOxFoSa8m6zkY65/OZbnjZre6GO/m6sO/aw430GGdxqNlUPgj4ch2M+KWoCxUfR/xJytajgnhUqHvAttVPjqWqYgzQeXLmfTnKaNn3vj7RBDNmX3c6CX1W4nZ6Pg9s8zHwAP/iTdhPoCFxmexFCRx0eiOKXm66mshLt8idwmnhs6yJSnGuClwSXiiEwMNrS+1rO8/Pk9FeazhDS+UmBb9g48xpsVqyHWy7VKAERdHtaCsj3B2ZAn28ukUa2+zAaQlplxNj4ryKx53WjjIEDSID7A//+//7//qOMgQOEgPsD//7//v/+o0EigQPAgPuDAn///n3vlnp5aGXjauT3Vw0axsXzWQwTcXCwaCuylI4LdW0yv2yMDq1WoydpiyVcaJFafTRMqEKOQwjTGxgAAAAAAAALQj2VW85cgoyaiJmzPmosynvG6KDhtA5QJ+/qYKsVBpelz273iaDvFXInDRp3G4wDAFPwi4RcIvxGTXT3/kh82TMaWDuLFghOoQhbFfA+/ZaICYLQ16gThWKtbAQAI1cM3q0DFLFKeON7t/mxWK/ROuUc4HPOijeZFSlybZj/AvNhPp9MQxknA9HVok6uyzO5yttV2jrO1ZglyDMbTLR5rDKr39DCRsYp0WFkesNPG2EMo/UGcz3Lo75rKhFTbrqMG7VIl65fvk+WJ+WN1DVBXFETXi9uSqajQRCBA/uA+4OuWH1rvkPuyWUuSJ/VUFfQzhIi7yswtreMs9CqvJoyOsDI6rVQK0Ur+qD0efI1eRtR8TH8sheJO6ux9/jaZFfHFoaOcg/Yc+YRIcaMTknmgwhCIZ3m3c20ZaLItmeYSkwiVdm7yQ3kHc9VTX8O3wkPIpeUQZfQKZgPKuf384lthcWVfjHSpThU4crrI1HFLIP485NFOBf5OIShIMHxN+tmiMJJDgUgE3IoLTKHydx7bX36eQT9OePE/3bw0Hl+9m4G5boaEWXJ84AXQAkFnnNtS/s9jDkiXNV3Et7M89vO4d+ps22jLjdAWvxuutMgwDZwQpXIQGFMtcLOFcE89d/6QeB4VhY9y9L//qOMgQQ4gPsD//7//v/+o4yBBHOA+wP//v/+//6jjIEEsID7A//+//7//qOMgQTsgPsD//7//v/+o4yBBSiA+wP//v/+//6jjIEFY4D7A//+//7//qOMgQWggPsD//7//v/+o4yBBduA+wP//v/+//6jQIuBBhiA+4N/AmHWYZm5g9RfSFh3RPUmuQaMicTwxxMdglNGhuziKMI7WxjQij0eJlTaYXSPksB0pEEskSlgpj3ukkzGgW2NgUtlQw3OPVvOTo1hBNci2hFNNHlOUDNrAQkj+NH/rBljbXLLU5fc0rFDiRmjvQSk7oVRZCJvkLQxiuKY8ybIRzz//v/+o4yBBlOA+wP//v/+//6jjIEGj4D7A//+//7//qOMgQbMgPsD//7//v/+o0GDgQcIgPsDf/pivm7B+h/7bvk1fA3Y7Oh6thMwOd7jzZvCOna6TVrcldHdIH9iC/W+d21ezjy3rp1ETh+lKmi0pafczk22CN6EdcQE30mtQiljxhyT+ITgT0BGBExcICyYat151gpDAhBY0a2Nr/satJFv8zt+JhmCqgBGAigQif+s2Ump233sdoo1Nmbf9shheeHirk7J0FGke6VulU2KSZ8Kxman+BIO+NVhFzKfu5C5jIPmNCy+08dIIMvKxtLgC+oqnwG/J5QaV/rNsY1Nyk6ges1lb1KakhHsCz3pABaFGOTH0kEDMbJS/e8J0T8jxZwmDcZ4ZF0iyIe6hejvIHe9ZnF99jXGPk90VzZiPna8Dsa2iD3WX9Fnwb9AT5qTM+rrhqhPRFL9dfmzUfbXLFeuQchJo4JjcP7tmAeRjSsj+JxuxNEEdIdaqwWfqpMmfzHnOlD2NQ9M23SZNukF4JDhnnYQzAE5FYMf9gqTCwdIAAHDKB3gJSkBZAyL/VfIaejDo4yBB0OA+wP//v/+//6jjIEHf4D7A//+//7//qOMgQe7gPsD//7//v/+o4yBB/iA+wP//v/+//6jjIEIM4D7A//+//7//qOMgQhwgPsD//7//v/+o4yBCK2A+wP//v/+//6jQQiBCOiA+4MCf//+f/Yurc18Lpm2+nShJjfSiyf662qIl65yz+/ZYLrXEJ9+R3VKUtDhSmZJDz7GHArfLMw+6UknrEOd+olnHm+cUKrZKiPqcWpteKL+DCK2ud6IpH2aVbsFHfyLgg6X0aOdNvaxUFkqUc7i/qsAYjtRgbfb7e/zkHIVA3MJU/JjMX31brZSkXDfTIE5FbTONVDS3shvKdgcLmJ0GRbArV6om4pWjCvT14rLOw9ZYNk7CSbQLoM4+bGVVVHVZe817+hnO1nASlAdcpX9oXYaKtac785eEdOAGP1K/RhJop73ddx7rBv+bWVAy2BcK0cbCNheXcY7LTP0cYqk8z0yBe+jQQiBCSSA+4N/f331L3q0MMbw4Xdz29wney2g7JCd+RGox+xfiLpeTmffdqwexAiArEzY362jOorHHVnmJbirNdy0SwRCYwTNXJxyL7hNGACjj+Ka7w1egMnkD/PzT5kzNgIbT8AuSJ6oy3SOEepv1+Lp8ryW9n40xyils1IJAZUb/UBuTR669sx99S99WYC9AO3sL6gDq2hRPZQtHZ+MdYCx5TQGmfGNC/UAcemjWE4vzCKNSTz/Hinhw6wbOKmiKyokAZjA60252tfp8xBrPcDf29AjCmhEKnNaH1gfy/JlQ7C4vejS0ucn+O91KzuIiL3YPTo87jcSqR/wClQJeJJyJWQV4Ezv//6jjIEJYID7A//+//7//qOMgQmbgPsD//7//v/+o4yBCdiA+wP//v/+//6jjIEKFID7A//+//7//qOMgQpPgPsD//7//v/+o4yBCoyA+wP//v/+//6jjIEKx4D7A//+//7//qOMgQsEgPsD//7//v/+o4yBC0CA+wP//v/+//6jjIELe4D7A//+//7//qOMgQu3gPsD//7//v/+o4yBC/SA+wP//v/+//6jjIEMMID7A//+//7//qOMgQxsgPsD//7//v/+o4yBDKeA+wP//v/+//6jQQiBDOSA+4N/f3/7lLG3AFhxA51ymwZ1EPpzwSevUnCUnXsJu7OwQX4NnBleRiAfmJXWsy6sA2anpcXEC7OVuuxLhR5gAAAAAAAAAAAAAAAAAAAADIq0NE/B7k0kMzymVm0fo/WmreUBh0hXWKgVjaJrG0XxcEI7fb4BgCoCn+D+EY9vZDMvIvZ9+KMXIXcEt7z3Jx4/wZA3FKsn6C8rSrgEyUCxQvfFuMgAGPuPSn6pMhEKPeWK/stuPed6X9McvFhwU8aNmF0cOtSdbkD/u9+n9SKhD0EzydxJoA+eHULGooZ+4kq2ZI1/fdilr2MuXs/NGmh90GmMLhnOUeekfWL9RHn2HyrG//6jjIENH4D7A//+//7//qOMgQ1cgPsD//7//v/+o4yBDZeA+wP//v/+//6jjIEN1ID7A//+//7//qNAi4EOD4D7gwIC//7//n/708ZVVsPYoHGKsFA7I56nRStIkxL6h+t0ZeXLb1k1ra/NMFNIU6DMTfPukjVHHGcyHrTAlYhndV8nAAAAAAAAAAAAAAAAAAAAHPFKFa4kRT/KLjfH8dfcDnfJ5YA32hkvrFQuxtENjaLwAAANvt7/v9UAAAIuEXgQ6nZYAXGjQIuBDkyA+4N/An/6lrkYD2hgIZk2YXVsXx/HNuKG5FQBp/qNs/89BXZHTKZ8VjFmwn1GJsyOAknLDRrh4DMxkAAAAAAAPQJxlCWhuLv8HXYZUJifHNC5Fw7NtjSAFLklMAD2qADiFJEFu8pSAFCAQhpNucVwueQP+AAAAEAAAAZ+AA+qYpyA/dH//v/+o4yBDoeA+wP//v/+//6jjIEOxID7A//+//7//qOMgQ8AgPsD//7//v/+o4yBDzuA+wP//v/+//6jjIEPgoD7A//+//7//qOMgQ+0gPsD//7//v/+o4yBD/CA+wP//v/+//6jjIEQK4D7A//+//7//qOMgRBogPsD//7//v/+o4yBEKSA+wP//v/+//6jjIEQ4ID7A//+//7//qOMgREcgPsD//7//v/+o4yBEViA+wP//v/+//6jjIERk4D7A//+//7//qNBCIER0ID7g39/ffUve3kekIA0kOqpEfpsncxuP3DEbtF5C+OHFjM4MmzlYlPj5ZdZZlR2uHid332kkgof19fr+DGLPRU96whsjJHIn2bsjEi+e8T55g6vQo36WozIq8Mll4mvGkLqX401FVz2M8JruYZyjgyfm234uGYaqUEhwjAjhvjfb2hsIH31L0dGjC7h4YozKXwPd9GWGbjSSvqd52+5yveRhS81iDcQa+m/zYp3yPu0rk9Q1nURB4m2NRpggqZTVxE1FIJkdec75UH0RXoWaYmTg1Q3NWTHDCM/rRcrbYrKVnuGjBl0kfKQyPv44znIR7GUxTw61/gULMgm3A4296zj5uf//qNAi4ESC4D7gwIC//7//m/oqdLWMObVF1c2WRA8snJzXjds6hYxU05ux00255ce7hB4NcoEJHFs8cbJQ9m/IguGUo/QHFplOON8sE1XvhXX+6MmVwH2Cyf+vEQasuDvT/2Hw11mUiTuXG8JASQDvSId3gKCTqwMaT5SOGjra46Mv8Jq9kRTLYRsOO9y4SqjQIuBEkeA+4N/AmHpANQXgdQuZgAAAAABFD5aAAGnZdG5Occbj7hCOZxIZiZTxWPu48cMq79Id7CAAAAAAAAAAAAAAAAAAAAAAAAAAAAAAAAAAAAAAAAAAAAAAAAAAAAAAAAAAAAAAAAAAAAAAAAAAAAAAAAAAAAAAAAAAAAAAAAAAJR2VmaM8vz//v/+o4yBEoWA+wP//v/+//6jQIuBEsCA+4MCf//+ffjDxQ2qip32zoaUrxwNuRVkFPyrMiRm4EwMRFH4RBPxgXy3C+AbewXD3Sbii+z9Ub+YHbuidAtw2fq1XY7qv5HhghDhJUWSjfi78xWzb7JyIkOXZMkP1WLzSSMd2PZcyMpwWr11C/rjmUreIH/gAAQC7xGnDQBp3iBQojhml//+o4yBEvyA+wP//v/+//6jjIETN4D7A//+//7//qOMgRNzgPsD//7//v/+o4yBE7CA+wP//v/+//6jjIET7ID7A//+//7//qOMgRQngPsD//7//v/+o0EIgRRjgPuDAn///n/6lVJAJTxr25ObB65y89uXkyLHL6Wq0xM8iTD/GM95Kge6FedFrfI8kb4TrIOmxoIqn2H0KIla1zAmMuQn8TIJ6P7Ht9JeS5/ztR5u1PWUFbguZiCQOLhQugUaJ1jrxb/nmu9Q064Ca5D6Td22eswy+lQglYR8JPvwWF/a/fxh1cmWmqCACs00LgguVbYow3STAV4aRTE1XOOlJgfrMq1YeID2k5Ap+OpZAFqZtBt5Bn+wjavPXOb5jbcCTVrrCGx0OtSSkJidUXvvRrY/JXt/iE+5CZIlNfuJfdUSwfckJE+f7caqT9AnNU5UszTcCm/EzeaPWvPrD4ajX7ioo0CLgRSggPuDAgL//v/+f/uUfDckostbBtGJOKvc+7PK14LjnqfH9nIiLDNOy9XKHUevJSgtmfhuM3jtQ3c/aLCFejhGKR0JGnbExfT0c/MjRIA8epDzHDSJHWJ3vrOP79/H/ZsEdRCNCxx+rJ90Ffz0gpGKOF/EoW1DZdxuNIUjc57yjQLbcES+OmEnx6OMgRTbgPsD//7//v/+o4yBFReA+wP//v/+//6jjIEVU4D7A//+//7//qOMgRWQgPsD//7//v/+o4yBFcyA+wP//v/+//6jjIEWB4D7A//+//7//qOMgRZDgPsD//7//v/+o4yBFoCA+wP//v/+//6jjIEWvID7A//+//7//qOMgRb3gPsD//7//v/+o0EsgRc0gPuDAn///n36jiNuok7C27p6N6vGwDGxin8z0cgIBN7pC45VKYSO2MxaPP9lhYkRBfYJABBZD7YEDw9NtHEvE+wjeenGAgKMyXXZ4DjAfnkz21L2XgYCYwrhmzBmHq6FILmBg31Y+wUrLFEoAdnRnhWwYkZ/s65d7oijGXN5Z0+oRCdjKUl/8sTGPjuJ3pGl1Z4bkyQgoxfBZyyJwZgIa8BPR5mShbimm3jTIdnXTq3F14X5G9+oWjZgUMTaaYuvjLMg17FxvmmGFKHVN7xqW0Z5wSy3M2VnFB94IiM/VvoS8KKNWwSGTLk20lfy33oGpUglTNOUtYpTgX/ZG+Z1/MmFZSelRDjWzW8OSWtrrq4YXQinz2gSX+/AilKz2lHp4Pb0Reok7+Woo4yBF3CA+wP//v/+//6jjIEXrID7A//+//7//qOMgRfngPsD//7//v/+o0CLgRgjgPuDfwJ/+Pq8zgtUNlCc1UC8AbsA4l91X4QdsPienaWyB5DEKIBVqLFSd9kQzqcGqND7ned6rZMD5yFGjPIzBXyiAAAAAAAAAAAAAAAAAAECl7ZctQKyoaJIz2wzcb+tO9KwFYko4foTRwCsneFgH3HCC4gCkH/uPf0tte8VDO/Y+hYT//7//qOMgRhggPsD//7//v/+o4yBGJyA+wP//v/+//6jQIuBGNiA+4N/An/6VpUh6dk3d63e9lB7z/h2PvVOvzOV2JdlKq0K2ZjzSxbRRW2cnsZ1+79+q7tCIZ4W0H4LVlcJCZlkBz18spTHmy9rUvHEWU0FXw9suP3UeLne8Ff9nzmjm5Qxo6BI4qZjlH/HOGf/ok+uL+m1u2v3D1SwlgRQIfzsjqbeqm7//v/+o4yBGRSA+wP//v/+//6jjIEZUID7A//+//7//qOMgRmMgPsD//7//v/+o4yBGceA+wP//v/+//6jjIEaA4D7A//+//7//qNAi4EaQID7gwIC//7//n/5CX1jyT5O7PIRwU7axeEbnJdVYlX/bFY7jZWLkb/gwMBzOGIs4oaRI/SU97MfWjRBP9zdxV+9er+O15dOo0cIkUItlyQTUXqJ+tjOzAqV/t0DF97EGdMtsroHgmeh3Q09tk4oN0KD2YRB70objcaQuK4+4+20uP72R8RFxIijQIuBGnuA+4MCf//+ffVr9KXiHSn0k9PYOnznF+NQeMS4DWmoqmS38NIY9qXo+g4NuL60vItIEEu/E+zYOv6XOgfOD1XNkrmhBuuzzXp7+8K+MDjuqS9L2lZ57dmcXB+f1tQynVZ0bpYNIUi4oUhweWjTIfnTY+RrebfbXpfdL8KehEgibxlH26aZ1v/+o4yBGreA+wP//v/+//6jjIEa9ID7A//+//7//qOMgRsvgPsD//7//v/+o4yBG2yA+wP//v/+//6jjIEbqID7A//+//7//qOMgRvjgPsD//7//v/+o4yBHB+A+wP//v/+//6jjIEcXID7A//+//7//qOMgRyXgPsD//7//v/+o4yBHNSA+wP//v/+//6jjIEdD4D7A//+//7//qOMgR1MgPsD//7//v/+o4yBHYeA+wP//v/+//6jjIEdxID7A//+//7//qOMgR4AgPsD//7//v/+o0CLgR4+gPuDAgL//v/+f/pYwnVbwrJOqPLzTr3mJRcadgDuvZJ876tyANB8iEq3n2eY9MMrL+ceyGb4HNchgYjtPKQRcElnBbVO7rMAAAAAAZX99ZUmRQFDJ4sAYE+LkgmVfkEogSP42F+Hv7g3iUcIzuKmgktq6Uq6xdOo7CKBKMKMoYS92/d5jJHAjqNBCIEeeID7g39/ffTtt7u7ucAdkezv9cbsk11QAdJ/NiG+M/EqeikQwQi79GlHj8K8E6yaW3/B+G5ozwjOvsFgZKAAAA+0psqZf/GyiJj/kUdjBEXA9ICSdrxfL0UZBeJGWNpBlY2imXsaOKOH+w2whbU9Vf+d/AwgImQAy8YCmADkRIk6FJVJo331bmXRcbcuA8klffTWZ0puxMCqNDVe4lvXkUiGGFYrvdYGXn7BxdAA6IVp45HzDtmfbdFsUpekObSQkJaZ1eKyxF+8YRXvThm1DXr+hWEVa6E3CiiQdDcsuIPMVLZqKXCA3kuIhxzhlUkYocE1jGlSYQnjuKlTewj9dpbcZhL//qOMgR6zgPsD//7//v/+o4yBHu+A+wP//v/+//6jjIEfLID7A//+//7//qOMgR9ogPsD//7//v/+o0CLgR+jgPuDfwJv6A1day+Yy+lIGUz5qJzc0Cl//29JI1A1L9TXSA00nat1VEwK/evPSklbNk2q6MIB7CUOw00akPXRAUSGalNr49B6MfWf/bMTfk9jqnx7BCTQ5T1eOkeM7zyWuZFSo+WEBD8Xb29I3bEHGpLBlmkOMvaRK541z/Diz/Q15BQk//7//qOMgR/fgPsD//7//v/+o4yBIBuA+wP//v/+//6jQRGBIFeA+4MCf//+f/b/kYJrOWHQWNuKSUMPNrT1K6+qzHl1iH5rhxNdFenRDLSz5ht7bHitjucgSfovsSItN5HnVgvGGPxnj8k/06FPnff+6Z8w0yXgA1uj0YfE+UHnMcm0CTV6bbzbYbd5sxcUdsLx+eAvjo78R2oP3+322AU7scdT/l4StsLQ2X3jAXG6GfkA9km5ippogTVE/zPVd5KwmiPgHrX14QtgZyOV6MYyPJMajBfh6aO2zmlv/hZ5x0yOS07bXaEuzy1nNXwI+EKHEIYTa85/EAu9LMVA/ZtbWGX6uaXtB7PUQ7HJ++nt440ZKpLlMJGUC5r+ibxYI3Y+PZZHEfs+ieAdFyL3XMIyFI2jQX2BIJOA+4N3f33eDnykL8TqSUWZn5IGgJIUYhPRwZtriXNyrVpTZY3dTXHlv+MN4t7wGjIrgq5HuN9Rnub4708fdAsPfaFOsNfoQOKVcMm3srR4iO1I3NT5MM0/gSR87oALBWEYN5zrEjsK9MKehD/oA7jx7ghf0vdbY7AVSVKkffAGodRLXsAPnqB5k4UFjxslft6UflO3MqgxIudbWsrZznNsrA254rTsVOJFYC9LeOlJ6VzqOMYnPEl4AAAAAJ8q67uaYZ7WA3qXUeXE/oON9pM5aon1HdMFMNuxtqmxTAK82PzuN3jbYThlo7jcX/f5x1PwjDO4BCxC4K7Oxn35MW6TXyaKTntjwMSUrjSkz7+9UE5ifvzoyMUKXp6xsWelRcj2bBozM7s0W9xNKJg5IcGQYN4gAAAAAAAAHA3c1DMN4JGK3DjKpB+UNofBUHccL+iZnOWGuEAAB4n/DZUAKFVwRs73xnIEZGBAH/AAAQAAAPcEABMJzJ02iAWjQIuBINCA+4MCf//+f/vMCkcg8Roqq84/GHgcgxsZXSZn2CgVRRomrdzBdz6Gnl9K5Soe7+37wM3x7KOcmSeRdOJKYzfRmrzjCz+UuV0IY+cq3Vj7SvDpLBD1AXV4Qoeif8nzdAV03UY/LUXSgGUSLJgenc9fH78ZYuqPXf+IoJ0GIJEUsXHnxhcND//+o4yBIQyA+wP//v/+//6jjIEhSID7A//+//7//qNBCIEhhID7gwJ///5/+T2dQTxDcqKfS4W48z5C2YQ8bf9RrFcsoPTa5r1NzRPJxsMjui6ydT9Ry2ZdRQBrJHQhTgAAAAAHOKCFrWVWgJekoLBfO6RXTJ1/PQ2UIXrehtnJyjA8XBBRt4Ns/wZeLJ4QeIDUg8TVeiykncbe/7/VAVACMBF+70gy7Mwzffsxsem6Qr7ffRsQAAAAABYKwDL2NhCGTfsAlJKUhgKMKDlKAkdrEz8DO1KIeix8HXKon8Hc+0ov08gAAAAAAAAAAAAAAAAAAAAe7qd+EMQnCDocfs6/7TbeNnd2GyDYXSiAA4hiql2EgA+vMwAAAAAAAAAAAAAACjePdf5z56OMgSHAgPsD//7//v/+o0CLgSH8gPuDAn///n35FD25NOrGpt550xiN13KVwgqwYuNWeil6Np2EHXonWXig6uGqBdYDS5uxrZxC4TQRIV1mEM4zgCzUOKvdpHnImf+q0PHd9dNggsKey6LzZlcvSswvBnRlKHBv6lV+N5JGsP8bGvYWNuLi4AZ1eqvDBlQVQcHMIFGBqJ8/us///qOMgSI3gPsD//7//v/+o4yBInSA+wP//v/+//6jjIEir4D7A//+//7//qNAi4Ei7ID7gwJ///599fzYjiAzs+fpV6DULWng/OD4+HV96PAETahvgD0Bg1JlfAz3XO0UICrKc/PLXG202C4X1cQAParyRsBXly0L5oJEUpZjAyQWEjtIzgNb+so+S3rtkaZj9mD2LhF1DEp8Rtk7JDrJyHWT6QeY2600xSaSADm9sAS/RsYVJk95//6jjIEjKID7A//+//7//qOMgSNkgPsD//7//v/+o0EIgSOggPuDAn///n/6tP50Tnoo28wWAkI+981uvLxja/Y6fM1yutYg6xUGSGTVlIcFb0K+lJUuIX/C62dzMLJhXQAAAAAABt9nBRAhl9ll2KBruYcVwbLRgr0PMImcq+nD+i4IBmEGjg5lRcEH87n+xtGGI7UVYFh9vt7/wBUBUAIuEXMF7sh5Ncl/+matExDsGaL+Hl9tYQZziWN14bu6i/igfslBZ3sghnyeKVDuaUxxNxqil5JHTDQg4xhAAAAAAPpeRkbT5//1U+uWVGvb2T1dBQWwCj6pzmy7gvJZUgHikiBPT9dYh9iTXhjI5tziuAUICxiEEAf8AAB7xAAGfgAE/O9no54+o4yBI9yA+wP//v/+//6jQIuBJBiA+4N/An/6YsBVnpt6opa0LsxA95QCdZsxGJX+YA/9+9cvnyI6XzByR1K03JQlWDDybNP7tVoqOzcR+XsY3RfZ2AAAAAAAAAAAAAAAAAAAA1oNajPgYTA0OHz5UB8aZiyODfWXgOzH977Xnt8HCKJcC4OIb7ggcCmv/DQYIL7nSEHGwEP//v/+o0EJgSRTgPuDAo3//n3fR7WUwqmadH+Nmsmr9NvM8Ii2rp5wnVbIkPlob8htNJ/xmlayWVoYSgbwZyRhmWet6IKkmB9sINpBAX4lfeYovL8CQhuSFIZEzxM5fASh/Ql2s8O4dLUFnyqhJ/i2D14qaeNjrd3lhx8xMj/D4qC77vFq9Q6udWfMBg647O4NnmYjmvN39o7kq0RTLmHTruyMM4fhTc/RvQ8LdaIlDgQ6Xs8JRFaQ6dgJ66Bf21flbpRzxQAu/vdCSJhOtVMf+TzB3zzVH4amqSB7qy6bwmJ5LOwdkaRq2sxqEEkqHZObU+tjbHltkC6nYUr15onGnPnyHrepVMeXBPSrZ9IsXaNAi4Ekj4D7g38Cf/qzesRtXIqHUG5wO2t+b87sj4GhGroOLo40BJl8YWH9VtQskSdGDNWmcfK4GVuJsxQMZvvl319IxBsK9SOM0VewJMQrYP4BrNlLjWQdm9p6aINnxulyclZuGBljHa2Le/r+RmUBfCc/IHPRA+q6rEMRVhChAPgE0IAoxo0knf/+//6jjIEkzID7A//+//7//qOMgSUHgPsD//7//v/+o4yBJUOA+wP//v/+//6jQIuBJX+A+4MCf//+f/kBjsB8eI6CKlXCQvX+PBRCRVD5kp5EFCLk0oWAA09h77+1ODWyR0/dWGd18TTQ3JLVVSEM3Agv1NXUH0v4NnLD7uqlVd85XfOf3eDqJgW8kv1LxeAiJim0h2mCxIIbKgI45CAAF9cuLWZxNgAHgCAIAIAAAARn/TydcIY1zP/+o4yBJbuA+wP//v/+//6jjIEl94D7A//+//7//qNAi4EmNID7gwIC//7//n3t4+N+fkiJA0nOFk6Yym4MrhS3qdkJVq1PXQli+TR/UbYYbboIapiGTg0STf1d0DcFqVWV7j7BpUJb+WNx2aRdxkjP2WaIgrl3YLg9KT1TqgWT06vg7ZcyfhAX9DuzxrHfdTqPr5C0MszmtMclCBfs/m5hbYj7Ol6OzPW1qcejjIEmcID7A//+//7//qOMgSasgPsD//7//v/+o4yBJueA+wP//v/+//6jjIEnI4D7A//+//7//qNAi4EnX4D7gwIC//7//mHgOfaFJkK84p92qWrc2dwGfOa+PJg7kWz2wMaU0yiYz+IjvTb7C249YzMyRHU/X8XJH/l1SIYM6vfcZeAGfWzGkruIoAhkCXlyBIA1A0URvdGF6lxn5U1wRrZ0HXF9ASUK8Rsi8SJAB2KvsEEoc7zGxVHBt22nAm9hq0DsGeWjQIuBJ5yA+4N/An3iAwax4H3Tf2hC+X2Bzgvq2oW2GmSwIqbXOkFbVf98Iug9aeu8Fz1LOmhiQY2xq824lPxNCc9Xp5D1wWdUqaaB3hPsX/QVUJWH0BekLZHM3DRhU317G5AGEClHuksdmXZhvsS0VSx/CKCUX06FEANJg7NIPjKdTyCMkHqweqD//v/+o4yBJ9iA+wP//v/+//6jQIuBKBSA+4MCAv/+//59+RIZXlkfizZm4Fuv7etOb8+cGWGqB6QKXmIEvRHQjFf2iX7uE7Z3DV4C9HLaOL/KG2pVvLGLpz7oCrsz/ut/2XMXPx2tTi5J6OHBjAu5wVZSebsjVwtgyyFvjhvpQt6lhIRbBWwQaXGYyBtSHq/IoscqjQYCr82QgemCT57Vo0CLgShPgPuDAn///n/4k2DhG29bfzoqNUg8i7gnHfx22rYf35lS8oD0IMBGu38SvQiNWKaIfMX87ABTiFDXsMbj4B10QgCJamSnGGQsGibF8PsHfgnkndeU0Io62tYqwh92qShFfUSTMLuBdwEOKSlcY5Zj/IlBa+4uJ/3/39Ugn+/+20ToZBlb/IL//qOMgSiLgPsD//7//v/+o4yBKMiA+wP//v/+//6jQK2BKQOA+4MCAv/+//59vcAJFDT+cC4n7x5y9riqan/+p5TD0Uz8c8ynOSE0ZAPAbNd5MzTFCSFmNm+V81prmMmRraR6wk3XiJ7/6vXriK9nUUu1qlQdd+f87n7RQUv/7FqwWBR6NxArWU01+Uz+EhsQTSKsYZ8Z/8bQF2t8/W7GH6zRJ1dZIJGuXjxAsVwTzoQRDjznRRlz7bjGcE0kJrnM59Bey73WfU1JXTI2ZqNBZYEpQID7g4Zhfd5+XMZ5OV6YAsIQM3iHS2otbLzRaF7E0PgNp+J/DnrQOBhRf/YCzvFWqpHOHx49YszdZDsnq5W8AeH89LkxjUb1Y0j7WeAmG5cgWyVyA3JDSynUUJmlmnA6jzi7hCdf2L13z147aN/EsfOS1lXVasqY0jHQFbKLUIMKSUQ1CI9P/oMQ9rh/9hqMkTxrXFwe9Ekkcja1MBvKY6IfEENQsuEe6c0E1GJQyg4BrOmsPy42Ah5S6VJPsr7YoS0N0uvkha+xB2zMV9EK652hxuYh6N1eNHnEovRABGD2r01g8SN5CW42/m7hfe3at93ATRAt1OKKF8vrdqQb0rMxqbFooaOSS0HwTB8V8GS0FvThJ8bk2x2GX2llxeZ9PFKWwx/WQro44uiHpm4r9XRAiMRbClB1bFxpKmC/5D9pZY0diGWNHNxFwLbMZdjnH03kVvGzsK17NzkZ/+gPC5LSFqOMgSl7gPsD//7//v/+o4yBKbiA+wP//v/+//6jjIEp9ID7A//+//7//qOMgSowgPsD//7//v/+o4yBKmuA+wP//v/+//6jjIEqqID7A//+//7//qOMgSrkgPsD//7//v/+o4yBKx+A+wP//v/+//6jjIErXID7A//+//7//qOMgSuYgPsD//7//v/+o4yBK9OA+wP//v/+//6jQIuBLA+A+4MCAv/+//5/+lg8cIEmZ1iAPUwguV+WheDpVCXwH2hD4XnjaqKWld6qKCk0BAyVd5qM657ftW7U3IWRVxejBNse+tmAp2IxK42Q5e/QsAZt1g0+JsHbeLPVkwAgTzbG0LJEXBg8jOLgeQcME6Yx7gxC3X8l+13GGYQqiEXCKBC+X2REcEhjo4yBLEyA+wP//v/+//6jQQiBLIiA+4N/f3/49XuE4RDZ7RxULlvygW+ZkmsDtvy9fzWUILy6urHEvyMSzig+nxo2EfX1cq+7GEZzF0PvzHP0wbsAAAAAAAAAAjmHxdZAplOjph7TrK4/2OcWrDcgo7r+Vk2aYKsU9zb3QGkCA0k4jtInDKA3G4wDAFQAjARgIxgI6nlrRyh94kwL9DUAJ8pxN3yCEMQOgvEdi2lBtdShqashmQaxV85O97OoZ2uVuhqBwLzZeDvxhsZocRNKAnTCXdg6c+BWhH2eQx7qHAM31/bBRbMAz5Fy3qIfw3CTrJwCL2oIV3HDdDzye92nog3Qe/owAfg9xKW/PGuX+21jYo8UUZ8g//6jjIEsw4D7A//+//7//qNAi4EtAID7gwIC//7//n3eBsDuzvBLGjjYFXCkbHeIVfjwyzyG1s5oY4ahVzJPdSox70n3xTV6Iz9cAU8+Cw+tZfBMOOxDsi3CU78XlrxkpLESqadbZyLtlBLFv2dclfYZhpYWR00/dp2oum8XFxGCfYm+edvph+FvcJ6aisj3Wan4GAwYDIXN/4KHx9OjQQiBLTyA+4N/f3/4nFp/1/ZYlKK8D0WBup9eJxb9FRhZEOrTC1CBtYTUGwwxHxDRFofxzc26OnxpFoY8vcO5XL9jMlEt407xXCuuX1cyDEMca/1W05LZ+/zt7CD6WU1KDiO2Fw2PJFNHGOH8sVAf45sNOugLycS6fQx3FFWQlwTMJfbIZl6fPGV/+KA820kPT7G9JKSEt4pnSvcgleXhIPLPUGN7pYpqk2g2u8YcHymOGJXBrsRsusyqEheDVjjMxtS+Yg8imjkTolhItJAbjoYZwlClGG/o5l+nwCzz94RKtY3FuYz+d2EQu3LAteWNElyaQEdCbKMJtXAGAOqGtZm/HTFW7AEr//6jjIEteID7A//+//7//qNAi4EttID7g38CffUvRgiyr4HwvamPOkqTvoYdjLlZEvMJj6x02iaTZIVGU1/BVjnFYUmdqwmK45yHcBZNixUybvw+00AxmW3FTON+e8pU3MeTisq5cuo+nko7vox944Azvm2uQkaOXIzPkPcrU31bDDt7EnNMWW42t9XypoEJwaggqeeGqlPkJv/+//6jjIEt8ID7A//+//7//qOMgS4rgPsD//7//v/+o4yBLmiA+wP//v/+//6jjIEupID7A//+//7//qOMgS7fgPsD//7//v/+o4yBLxyA+wP//v/+//6jjIEvV4D7A//+//7//qOMgS+TgPsD//7//v/+o4yBL9CA+wP//v/+//6jQIuBMAyA+4N/An31LYSW1rjcgx3rSSAH1lfEElEjCXF7zlYOpxOG0HhUQlWP5wNPKO0sZY3SrX6uUO85ceIY1B5xOrg8SK5fbQ6aj0X+CTT4Q0ChoQIdKMaPFfme1d27uMdK62WsELWPybpH5ZMlQ4GKwXiixQZFiUKZ5ubhFaIwmFhFdRpqVvL//v/+o0CLgTBIgPuDAgL//v/+ffkwqwiL8/RJi8vS/WZipR9/OyLtPW3KuTmBdhASCedtpaw6XnWvdcQtbs4dSOBrKTrxLYOvXu3am0JkpJ7U1Zsb5WEtaEMAeLK3r4brONs2tgi8h3yi3nIn7GhJzp+sWNcne32e+xNLlXU45mt1d4XupsEqwgQkUWHheueXoKOMgTCEgPsD//7//v/+o4yBML+A+wP//v/+//6jQIuBMPyA+4N/An/6cWzFW5oCzP4Kqgca6wZYC9LReiYGi4ZRGrSz8zp1gVsM+JcSll8X3nQdYjHlhfkXairJAcEaCilvvl8gf9TzkkufroNGPEQxyzN28t/UlxjCf/7bnTK2PmhSjoG2GSJrLMSawncFkuZIpzPaz06DxVVVYgBUAlPt+fJwHpn//v/+o4yBMTeA+wP//v/+//6jQIuBMXOA+4MCf//+ffscsOHr4rU+FOM9kGAK5xNOXzcKyjiRjlVvw5gkoOHi9DLGgclLE9FkdWBOwaemsNWV9kZEkHYNqW1Mcm6aB7W0Neja7zcrF0MPgmvEVelOx5R0Xz6LHA9TtzRMBo7WKiG7sv8nWJ2rv4o1JXYau978U7VAwfwi8WHhWuuQSf/+o4yBMa+A+wP//v/+//6jQIuBMeuA+4MCf//+f/xs9EKriIaUksNr8O6BRs+PUQy5f4RlK/WTuCQc0Qz7oedSkU0phGyDBajbxMsjoltNciFLGjb6c4oCwpnMW8fHoMvUneVPCvnLb0cT+Xzz2V2lsmaOaN+nzmjnZQ0XBCnhB4HSb4zNDa4v6nicS/L9U1U8wfQjHd6PY76hS//+o4yBMiiA+wP//v/+//6jQQuBMmSA+4N/An37JalDvyfyVZRlBgvX2KdVIWEswLRv7kG/Pqqhm1M/UcXXICgcAychRvobzajncn5lWiyFV2V6nWhYX+ajBRDCW4L0ImzKWgR5kSujvHedX8PUiErDpdlglLwwDLxUfZ7l71ftMum2EgAUrAJBh+OODb/7M3LIZ/FhqKGOSJH//n/6eeE5vkC+uuTa3ZWZqfLI1/zFTZPNZ6rwdPdM2vDFpUBVSLK1/uzz6wUxC/H6xn5BmPoeS7GqHn/NFD5Y0s0Vpfa9+6/lqgkMXTPM30THKbHt25cFvooPsoWepEn4Sp/G3z8Do429RztjcXr4DfcHrkNs02pw9tamOBn3AgKdRTejjIEyoID7A//+//7//qOMgTLcgPsD//7//v/+o0CLgTMYgPuDAgL//v/+f/rB5TquOsDWghHYL5BFKHqWiRa8AgLMOdz24RNn47BX42HZiUN21bQXA68AGeSuyLjdhgEBMFV2gMpyjjndStzfL7EZ6Jfblhm3ntMrrvKUt1zQpVdPxeA7I0TcLxyuIM5zmjVATDDiAFXZ2t43Gn+f1WVVQq4CqMEVQ2KsM6NAi4EzVID7g38CffSJAhm+pMjCtxPdwtG5RYfYIQFiFrNjNnSYlImmH7df0Ypm5ogvjJ/WpYIusMtpTTor6e4mg190FPiBp/plxUvP0azX19aYgzTqgf3w8KnyPbT3joAHYdhRexifO79+95M8Y29NvtPL5MFzIGQyGDln5473hPhpvLPALJAfZP/+//6jjIEzkID7A//+//7//qOMgTPMgPsD//7//v/+o4yBNAiA+wP//v/+//6jjIE0RID7A//+//7//qNBCIE0gID7g39/ffSCDK4YRudh/38/v4gBduL5i497e3SXbn4VZFcTKKrvMFXvYhVd82/c3+I3K3QdFqa+rvymNI25vU7xozMKGixvNqaVH4n6XXj14ZwVdCd3sUxBDqdx+4NyjunU0Bo5s0F7C3irBtBskbCIXZpzBwG1Nzo4ZY486GjDLRXBUH31/hZfShM8pWmDtpgaRf+e1sW4kpHzjCdAjN7IB66QE6qEuLcnrVW+ilXFFsLvrHv6OknF0xrood0cU+Q5/uqsilDxGx/kZZaBETrx8hlsSojL8IfYxxvKd93JE6iNT8924r8+kDdU6+YPgMgxZg4Da5uZm3VBbC+Zvx6ruun//qOMgTS7gPsD//7//v/+o4yBNPeA+wP//v/+//6jjIE1NID7A//+//7//qOMgTVwgPsD//7//v/+o4yBNayA+wP//v/+//6jQIuBNeiA+4MCf//+f/q4H1D6+AF/HiGa5FY1X1uBkU7burRICmAvjxpgosFAXFfkU8cxWBQKN4OYgLNXoP4sPsJ4avG3Ey5NfXF2eUtBDOBGxStnbEVR9FSCLc994nncuwPyFhPS7h0gyO0uKX7PXYlvVdAG4n+A9famVcn6J8J58tiE3n5ntFSszv/+o4yBNiOA+wP//v/+//6jjIE2X4D7A//+//7//qOMgTabgPsD//7//v/+o0CLgTbYgPuDAn///n/4+MyL0e7wJcu3oDAnWi67fO9KlDCaF3e6NmN5xXwBXDeugWgnpy+K5nJZJfiVNirRMDNso+gr8APxOUMo1CrJjhR7YcaxxMaHIn4dfsHu4V8zQCgUZgyF1Uq7YuOKO9JubiPjgjGnBJhJ0JEow5gPDFNWCi5Nas4FR2kvi13//qOMgTcUgPsD//7//v/+o4yBN1CA+wP//v/+//6jjIE3jID7A//+//7//qOMgTfIgPsD//7//v/+o4yBOAOA+wP//v/+//6jjIE4QID7A//+//7//qOMgTh7gPsD//7//v/+o4yBOLiA+wP//v/+//6jjIE484D7A//+//7//qOMgTkwgPsD//7//v/+o4yBOWuA+wP//v/+//6jjIE5qYD7A//+//7//qOMgTnkgPsD//7//v/+o4yBOiCA+wP//v/+//6jjIE6XID7A//+//7//qOMgTqYgPsD//7//v/+o4yBOtOA+wP//v/+//6jjIE7EID7A//+//7//qOMgTtLgPsD//7//v/+o4yBO4eA+wP//v/+//6jQQmBO8SA+4OBfn3fKJw839yafrhjngJ9hqUT4rpzpgMGTR4o0pw1rjcLeGVm+Bntql5shORH9H1PuVYm4oJM+zCi2JSAD+LvK1HLMQOXihLlvYF2ckgwjCk2hCqtWTHvadLfvTEjfTwFj65nRbzD2Nwksba5Fvzzg2bO+6X+VJVMCHhEDeNFU3xFnm/z+Ep5XBYobHJqfrbcCT7cMcJxtzfVPr2jNWjFEn4sEw0kyNbo23mmC0pOKyDT9TqF+SilqcuoW4i/4M+37Ime4d2WTaG/JIJRn7DXS6QX8oUA6AAAAAT4onxQaoW5mktpAAAAWLuSWLuSAAAHkX0isQowAAAAM8Ec5ulZ8P/+o4yBPACA+wP//v/+//6jjIE8PID7A//+//7//qOMgTx4gPsD//7//v/+o4yBPLSA+wP//v/+//6jjIE88ID7A//+//7//qOMgT0sgPsD//7//v/+o4yBPWeA+wP//v/+//6jQTCBPaSA+4MCf//+feHmubqPIx+SYN8dIhMECWBGzUfMhIC0if6giBa85U6xZdQSlaBWmc6wzAWDrefLHhLshJCnJCrDWn7GYrv1mqjC5xgpE0d+cpn9Uqu5RHo/iri7SNTWyrSBVuWJ4cAtOpYCKPCxhMo1jcI9ja0W2o6gGyTrJrlwIsQ0m3pRgn3cut5zovyxbwvshFgx6ZLqobx6Zf7uPDu8vIyOuT3znVYXXMhzQ3p+jggNn/2dLjCc/8/6pTmOZDrZyuGjNKdxmxwC6mRTccGtJxKRcP29GPS3vZJEvqZGRI9AgvVZ92sVuMBmG5oWvmGfYJD1aI6LHMf1uSKHvyHLYbHZR1D1w7ay3ZZ5GrzDl08g+k7nsl0xtyU4Whj/jXwPKmUjrMP44ZVbgiu/o+SBPd+A+4NYAn32EPbUxm9ldXZBqhmBhwWLhRyhE1YfwYp+8TMhNFZzcIC+on4WoqiPC1mHKSAaMGg2YGuZTom4jnfuS2qcc2w4bVl9UKA11KFV9NBI/uCBwIZNtji5pCj//v/+o4yBPhyA+wP//v/+//6jjIE+WID7A//+//7//qNAi4E+k4D7gwIC//7//n32Q0grDwYhoO4IGlLZI+o7STRmj4mm8sl4CWkvGnAYGxwj5n5DzoFQM+PDt99oab8xelChl8GEL+N/FBYjzl81KJYiF+Hhwj1PFz4gatw2giohRtxQjnlmbW+TxngDHplLTDHVKm+KAYyNBDDsVfoChEiwWwS4J3BSxRe81XCjjIE+0ID7A//+//7//qOMgT8MgPsD//7//v/+o4yBP0iA+wP//v/+//6jjIE/hID7A//+//7//qOMgT+/gPsD//7//v/+o4yBP/yA+wP//v/+//6jjIFAOID7A//+//7//qOMgUBzgPsD//7//v/+o4yBQLCA+wP//v/+//6jjIFA64D7A//+//7//qOMgUEogPsD//7//v/+o4yBQWOA+wP//v/+//6jjIFBoID7A//+//7//qOMgUHcgPsD//7//v/+o4yBQhiA+wP//v/+//6jjIFCVID7A//+//7//qOMgUKQgPsD//7//v/+o4yBQsuA+wP//v/+//6jjIFDCID7A//+//7//qOMgUNEgPsD//7//v/+o4yBQ3+A+wP//v/+//6jjIFDu4D7A//+//7//qOMgUP4gPsD//7//v/+o4yBRDSA+wP//v/+//6jjIFEb4D7A//+//7//qNAi4FErID7g38Cfe+DWQyVD+AH7ll7MHT3d/gHeVTlY+hTFxRWyhHVNiP/1JsnWknj7NlvMiJONKp8DD1vmidMMvqCfC0FfcruvZx7xYQXa4XiLbzpjADpHf/q+0xekklcrfIGcEVccGQdFLneo3rS6xYWADbBHpBahTmjnNE9ZTrGUu0l/nwX+//+//6jjIFE6ID7A//+//7//qOMgUUkgPsD//7//v/+o0CLgUVggPuDAgL//v/+fe5Zqjhf26HLo4UxIFUQ8V5qVfC9ADLyazcCBKsimRP2/ea6n6IUKM7vuDRmBbUp8zceJivK1SMRnB0kJTPXVfZTjAesSna0nTbKX/xZkX5ETis5W6D3dE6DGiGNcXBhPvx2bcwX/0PLsa7HZRZJlcPecDDTsKeKarykXs3AKaNArYFFnID7g6ECfb7iW6Iy8GzugYtTqAPjT6qeUwX30uYJct/JvZeaOLNiYgs+ETcl2wGcGzGyhtn8OJOWmetRp63Ex5iaaRvgoXvS8SxQaliZNN6FbUCAai0IYiacjKoQf6w5Kt2EDbnj5FYQ8TCf/1xLHIo74IEKFJt5rDg5+0vlKfXmq6auchpxQejhasw2/aOkTmyzFQXl8gLbdNSdBFLCugnpxODHufz//v/+o4yBRdiA+wP//v/+//6jjIFGFID7A//+//7//qOMgUZPgPsD//7//v/+o4yBRoyA+wP//v/+//6jjIFGx4D7A//+//7//qOMgUcEgPsD//7//v/+o0CLgUdAgPuDfwJ9+RG/0JE2Tm08aYxHaNdrA1P8jdtM7r/xZ7Ud9Pj8bOPunTzGeuvyXfCFe+RP1luCcl+3o3J17B/Os9EOt9CdXmLe9IY9kxQlr+9uOT21fWl4gTvXL5KI5pogyrNSPphiCQjW3Q5DeiJQEZTEg4uxUNDOIozHTESQkChfbzNA//7//qOMgUd8gPsD//7//v/+o4yBR7eA+wP//v/+//6jjIFH84D7A//+//7//qOMgUgvgPsD//7//v/+o4yBSGuA+wP//v/+//6jjIFIp4D7A//+//7//qOMgUjkgPsD//7//v/+o0CLgUkfgPuDfwJ/+p0IrOcv0ipxwXpmSbVDnz3wb2VHjP+zbyj04HQrP2D8ocZ7Zq0g2jNVyceiv/2W1UoZJ8UzZYPr17V80VQV7a8n3VFpRvvA7+7gSqx9S1PfUZ7enWrdViiPY4Cpxu54xyWIZSprChdei3dVOXxsVxFWEJeEzCd90H/HiAiL//7//qOMgUlcgPsD//7//v/+o4yBSZiA+wP//v/+//6jjIFJ1ID7A//+//7//qOMgUoPgPsD//7//v/+o4yBSkyA+wP//v/+//6jjIFKiID7A//+//7//qOMgUrEgPsD//7//v/+o0EIgUr/gPuDf39/+7bBDw04XGUzZQWI+8WIhnJl05Kfh1dCh6XTyuDfB5Wk5a9Jja5AS+q1E8niwWEabu7O+IN5HagIfFPMAcoAAAAAAAAAAAA/LUqGgz8jYXqG2Kki4NKwloZDtIhJZGAAVCEXJRzJH0PaNIRcnudzgRA/wYJEF6DIuPTRpZS2fe3an9vf/b5y+MVQBuAX/q/5qPt1UocjLzPukuw+ROnL7m8JfpSPNzyMtiAtkEm5+irJqtjUm7rlXu+MxrCOLCkTZsKi+cdfeU7PW5BJtxBosXvYBahplBWuOdC/1eiFXagYn4PjGanqalfpUyYae4QGUvmbd0W/7o42STskLP/+o4yBSzyA+wP//v/+//6jjIFLd4D7A//+//7//qOMgUu0gPsD//7//v/+o4yBS/CA+wP//v/+//6jjIFMLID7A//+//7//qOMgUxogPsD//7//v/+o4yBTKSA+wP//v/+//6jjIFM34D7A//+//7//qOMgU0cgPsD//7//v/+o4yBTVeA+wP//v/+//6jjIFNk4D7A//+//7//qNAi4FNz4D7g38Cf/tqjqpE8OXpxvVWARwm6qFrotYUeSgcwjPHEv0Eu3wxHLW5cYGjsaL50cgo1jmPKd8zpbDpXQOd4IENH4v3K0NoU+LlXEdomYdCkL3cNjpuJkldiSW9ugA/SrpctyP8e8nln1dVn6LY8Gd8zrRphOzaqa0cMsaCTn5H03bfUf/+//6jjIFODID7A//+//7//qOMgU5HgPsD//7//v/+o4yBToSA+wP//v/+//6jjIFOwID7A//+//7//qOMgU77gPsD//7//v/+o4yBTzeA+wP//v/+//6jjIFPdID7A//+//7//qOMgU+vgPsD//7//v/+o4yBT+uA+wP//v/+//6jjIFQKID7A//+//7//qNAi4FQZID7gwJ///59+K3aUI4T0O6x6eMjg0sKkVBKH6cfbt8iXm7S10U5cgNxcoi9rRbPOztaDZLUUBIgA0iZHq2z1Qm6AmKa5pymlxIC/43bdF/ohXaKp1AbiDS7CXlZp7g99U0/pKDXN2TX816fkcSgo9tDkQ7F9UENN1pX1XbEpCd8zMhGDbyi//6jjIFQn4D7A//+//7//qOMgVDcgPsD//7//v/+o0CLgVEYgPuDfwJ99TM1prCVQ6Lg++t0M+dmLSO/jGu/KoTANa0PWQxBLKpRq+PzXpiB9ueYbvUGX73F9SnV2Z0j1g7mzBEy8JR4TsurGlVfq/X6Yp4kgo4tp1Z+F1ikMcLViFQVYs8G5wxkyCyzQ4nanax2/5ZJbeVFB8bI/w9lmzT4ebLQy+RH//7//qOMgVFTgPsD//7//v/+o4yBUZCA+wP//v/+//6jjIFRzID7A//+//7//qOMgVIIgPsD//7//v/+o4yBUkSA+wP//v/+//6jjIFSgID7A//+//7//qOMgVK7gPsD//7//v/+o4yBUveA+wP//v/+//6jQIuBUzSA+4MCf//+fe4oGloUsUPTSYONDeTYIYPGLgdm+6hTbQ2crGPTkWIuLA2FATu75ecwQKhTIcIV1BTddAITvFQo1nqX3bwW4C0mdhdVoyscv2fOLcTHIGKMXOEKVo0k9SpHEYvNuznApYkv1A5ltL1HdYJZHHcNeAch4UgWdYBiD2BkN2kbIv/+o4yBU2+A+wP//v/+//6jjIFTq4D7A//+//7//qOMgVPogPsD//7//v/+o0CLgVQkgPuDAgL//v/+ffsijnLXV5/Qf3lWnuz3uTj+0AEHVZFHhkciNjRmDX4AHkTWYyj9QEEd4u89PHDjuIppy6AbKI8m0lBDOOywN2QIJm2G2dSmlund2oHKMu0VxajjMrcJFSS6C1PbIRS8RJwR3RFT6MDmTgdH3uTv28M2UYjNSPbbUJAogxudj6OMgVRggPsD//7//v/+o4yBVJyA+wP//v/+//6jjIFU2ID7A//+//7//qOMgVUUgPsD//7//v/+o4yBVU+A+wP//v/+//6jjIFVi4D7A//+//7//qOMgVXIgPsD//7//v/+o4yBVgOA+wP//v/+//6jQIuBVkCA+4MCf//+f/iqRR2EsRrqMJSgdEImrBNxRzlszMYS84sPJdKRaJceNP1fMRkS59BXEptg1rkKz5tUNTvrf4l+ppsAAAAAAAAAAAAAAAAAAAAfjkh7jam4YWywYaVIIhOJAAw2ZvkI2L+sZv7Gsy2OCHi3753OqvDAVQVLAgQRlQQvVpw5oP/+o4yBVnyA+wP//v/+//6jjIFWuID7A//+//7//qOMgVb0gPsD//7//v/+o4yBVzCA+wP//v/+//6jjIFXa4D7A//+//7//qOMgVengPsD//7//v/+o4yBV+SA+wP//v/+//6jjIFYH4D7A//+//7//qNAi4FYXID7gwIC//7//n32NgJdtkYl0SyBlVUpEAp3bM13g/+cMnaGfe6f+OoALLWmrAJqDABZ5bawL5JPsYxfFGtoyZYqBkoAhbeccns4zWT7wzevz4HljdKzM6iwK98aCh/I3j3qEnZtcfV9j6Df2fIL6MePuQO+IQB3g94EiBL8kOaHMZBFA0oN6BijjIFYmID7A//+//7//qOMgVjUgPsD//7//v/+o4yBWQ+A+wP//v/+//6jjIFZTID7A//+//7//qOMgVmIgPsD//7//v/+o0CLgVnEgPuDAgL//v/+ffUcQ6KnnZTnNoPdv78pWx1r98Wk1OdVlfwv/W9qGvef29gWKnua6TL5Vx+wAuYRG0m76jXbgAJJG1HGAYnPQeCbP3GHawhnH/Z+KVjSd1djCELF5xHqXgOkEYNYMm+PjelE5A7tjwRzR594RT7fnUEDTR4tiSGlt2nwJx0ELKOMgVoAgPsD//7//v/+o4yBWjuA+wP//v/+//6jjIFad4D7A//+//7//qOMgVqzgPsD//7//v/+o4yBWvCA+wP//v/+//6jjIFbK4D7A//+//7//qOMgVtogPsD//7//v/+o4yBW6SA+wP//v/+//6jjIFb34D7A//+//7//qOMgVwbgPsD//7//v/+o0CLgVxYgPuDAn///n36Zrp/d+9IUrIpR20ehM4ZjRFGHdapWtRqZkKcDgi72lBaSju01EPqrfci818Hc/eKsYwfpkSOgHs9xIiAkoc60e71yHP9bufJgSO0GoMlbGqHa8Apf+aMMrS/965ScC29xss4a1zLYtGE+FwFHqRHA/MqTPqlCbJiJphStyr//qNAi4FclID7gwIC//7//n/6tsQni5LWkq03ayMwH3hyMkp0xtoyrD0g9EWVkB5PDYhRTDhmmdQ6V2hqg5eKlO2fgnSKnU846AMdUM91iVocAUfvyUbWJHT4PeKc0Hof8rDvi/EgUSAtKrLQ6MfncTeHi+vEg2Zo5Tha2Oy+vwEEQQBAEoj0RJzckGmULT+jjIFcz4D7A//+//7//qOMgV0LgPsD//7//v/+o4yBXUiA+wP//v/+//6jjIFdhID7A//+//7//qOMgV2/gPsD//7//v/+o4yBXfyA+wP//v/+//6jjIFeN4D7A//+//7//qNBCYFedID7gwKP//5/9lD23PUyg/ysHDWI2tiqImdtVLKS61K5SFlzgr7H6x9ZEma7QOJ+4bfu3eF7xac0PFvqEX76pwNcm8euEfnjvzIAAAAAAAAAAAAAAAAAc/2ryoW89Y0UUrLnXzalF/FTXzex9AqswSLge+l+1S/MxUYyqpYe4uDRPuMAU/oBxzjhFwi+EB0UC3LNnWsWgH/6uDxyCXyNrtdH6Sf7nAOmBKeubi9SgYyrwQqw015CQk5x00QmYWhyOKs7Iv0n1EJGYf1zAAAD9Jz+trnDgmklurIxdWcxqrOG1UOiHgN9SkD4jzlJEIrccZyMMgCENJAcQH/AAAHeIACE4/ky/N+jjIFesID7A//+//7//qOMgV7sgPsD//7//v/+o4yBXyiA+wP//v/+//6jjIFfY4D7A//+//7//qOMgV+ggPsD//7//v/+o4yBX9yA+wP//v/+//6jjIFgGID7A//+//7//qOMgWBUgPsD//7//v/+o4yBYJCA+wP//v/+//6jjIFgzID7A//+//7//qNAi4FhB4D7g38Cfe+xiakaVEgsWowwgQEmPeIMQQoAe/M70y1rArno//Z75QGvCBQ5+A2Bw/u9mbEmYnafYwTZMRYcsgPkjnwY3+8Uhw/qCGZIkPDGutgs47pPQZngFXXAnK4mPKilT4kdRF5g/Btz0tSSBZ8eYENhsQRA/3EFiDNBmg/rif1E5v/+//6jjIFhQ4D7A//+//7//qOMgWGAgPsD//7//v/+o4yBYbyA+wP//v/+//6jjIFh+ID7A//+//7//qOMgWI0gPsD//7//v/+o4yBYm+A+wP//v/+//6jjIFirID7A//+//7//qNBCIFi6ID7g39/ffpcUjVdh8QPu6VTeEIdcA5w4l52Su+anaDAZaCPmZeCOkZC8gCgXJFrAX77Omwuva4UgLOHwNJIIRCy3PwHxFOTD/57QjdTfM7Mxgtk8pp5obFBoWXSS+z8o5tvPzD1SplYq92OBasanrFxYjtuLvezKphLQigShZYYujeIEn/8Xn3PPHmv68wKaC4SSfTwAUwQ5+sYfP8q0l1Y5GOjtwV6LBhfpIkWyJVIEvHdGRldZNILfNPIksmKirbdVEFbgAAAAAAAAAACutvF1SiUnqSL8eC/9YhJI2nSSZe8VPepR8EBFCq4I2d2KOOQAAAAADvEAAAAAALvdyWlOk7//qOMgWMkgPsD//7//v/+o4yBY1+A+wP//v/+//6jjIFjnID7A//+//7//qOMgWPXgPsD//7//v/+o4yBZBOA+wP//v/+//6jjIFkUID7A//+//7//qOMgWSMgPsD//7//v/+o4yBZMeA+wP//v/+//6jjIFlA4D7A//+//7//qOMgWVAgPsD//7//v/+o0EIgWV7gPuDAn///n/7tz7LAVjnxPQFIC8LC1K94Msmei/4E0BKDJZNSvSjxhRUUrp7j27FY28Mg2m2UunWG5VoAAAAAAMZgE2C6+D3kByDifmeKfheagSeiyKhswZysDJAeLggz5i4H2mnFwP3AjAcS34PE1YVOwA24Av/AFPwi4RcIu0c3wMqqlZ9+TFsZL1wssLCumM6OH9u4A4n1gwQKyhqgFNowNs0C3t1S8/QwSpY3E1n3xP9FPCn3lUSmlgAAAAAAArFznwRsQRduhKYH7/LSkN7KCpDg2icSB82o4ny8y5PAAm/xDqzBwBcvfGchFQm8b+7AA/4AAB3iAAGfgAIKAyuKWgQo4yBZbeA+wP//v/+//6jjIFl9ID7A//+//7//qOMgWYwgPsD//7//v/+o4yBZmyA+wP//v/+//6jQIuBZqiA+4MCAv/+//597a+vFjjV0mMoveml295GK3Xjx8L/gomG7pEtUdcoKxE+x48Fc5g4z3XqX+2WfO8MEXufFQlrHYwMx1Iv+FyxOAjO6bJia972Om/GqQbObHo7tuvyh8edcAraNubkoYOMwRg1b8KGwr4RswK98MpDgvCdV9p7YvOJOfvyLlODo4yBZuOA+wP//v/+//6jjIFnH4D7A//+//7//qOMgWdegPsD//7//v/+o4yBZ5iA+wP//v/+//6jjIFn1ID7A//+//7//qOMgWgPgPsD//7//v/+o4yBaEuA+wP//v/+//6jjIFoh4D7A//+//7//qNBCIFoxID7gwJ///5/+lYfM/c26yxc4nZ6+XQf2hv842wiRnuABUUhYya630iuI+45B5jiZjoGp7E4ud8Y5jr2A+lCgxUbnsOAAAAAAAByvOrSMXeMBGB03MYmRvrQ7GfDOVo/F0UH7DZlUwGmD0BqQxLfg8TVdU4z/b7e/7/VAVACMBGB3Kybz3sGf/x2mK+ZNeKyrjk2r0LdNcbmE/nXUSQW14XQSJH220/WRE9N92k1ZjWx3b5XpG6TAUbFIjsV3i4AAAAAAIVv4rNu30dG2cxOb/vIaDeyRJhj6FPgKyDc5B4QAABPSt4ggD0ueQAwfgSqVHK4HZAH/AAAQAO8QAAAAubdsTnOi6OMgWj/gPsD//7//v/+o0CLgWk8gPuDAn///n/7bp+eX0otCzP43mlWN+Irbm1q4+vxNlo6xxiAnLsI96jki7bLqD83dGPGsJvaoqbQpoynKqmhymutPoWAr3DnmprBXf3xKQ2yf4ZO5whNTqdAe42teJSM6PQo5bryZ6I2boUJUEqTKYAt6PGZfggOdjqv6ZNxIU0FiW3o9yT//qOMgWl4gPsD//7//v/+o4yBabSA+wP//v/+//6jjIFp74D7A//+//7//qOMgWosgPsD//7//v/+o4yBamiA+wP//v/+//6jQQiBaqOA+4N/f33fJXBIFsZjg0WKZfXVJ5GmHOUOzBtRA8KbfvUEfhTMr0zk0XKN4DGiwxbRJ4/DylZVJu0lk+ajeyQ8s7Nf4bQdvA2OwTfLVUvKB2UxKytjVRc012vHvvReGTL4l9SvyLghNhefz28MR6YzhloBGKd4MvGAAOKYAITXmglU2Dt/+5ECbcPCpJfLJ58F9upi/1WG7dhVqUWXN50eKeQaNYtYuCF9uGJxbOWczUTIS29uYDEerr+AeVjvAAAAAAAAAAEuAEWuG3g2g2jU6vl3RCgQB/1xPxnmnogRdhIAAH4PDfGcjjNn+vb/4392AB/wAAEAAZ+AAAACwVaVviL0//6jjIFq34D7A//+//7//qOMgWsfgPsD//7//v/+o4yBa1iA+wP//v/+//6jjIFrlID7A//+//7//qOMgWvRgPsD//7//v/+o4yBbAyA+wP//v/+//6jjIFsR4D7A//+//7//qOMgWyDgPsD//7//v/+o4yBbL+A+wP//v/+//6jjIFs+4D7A//+//7//qOMgW03gPsD//7//v/+o4yBbXSA+wP//v/+//6jjIFtsID7A//+//7//qOMgW3sgPsD//7//v/+o4yBbieA+wP//v/+//6jQIuBbmSA+4MCAv/+//599MRifruq7bSmPpMuNeAK67tg6dM0zJ8T2NzslonRwvTwQDj5+WtO7JDj/0mkiP4tJ0kOdZbYTNdD9FCI+ifbbGsgi3kOg0mPoYySXr30pMNCSY9ahcwT9p+h5AF0PiScGLFJaxvwVjU4YuJ1+FuL3vtUAJKEXCIK/TiLMo2Xo4yBbp+A+wP//v/+//6jjIFu24D7A//+//7//qOMgW8YgPsD//7//v/+o4yBb1OA+wP//v/+//6jjIFvkID7A//+//7//qOMgW/LgPsD//7//v/+o4yBcAeA+wP//v/+//6jjIFwRID7A//+//7//qNBCIFwgID7g39/f/iXR2d53BaQ7gaORRjDxshUTHc4bDSk95SZLa801Kswi7PkfC2xp2pyh/HrptEb/7gpyAnzyXn/OOAAAAAAAAAAAAAAAAAAAACKq9sVD+eHNBjHYzqsiO5PJ7Vx2WFPXoaxT1sbRzY2h2LggLcbe/8AVACLhFwjH0jzkjTSwX3uQgsDjyI3wMJFT23mlPBH/NjZVrOEyEeA9fbQ13LM4XJRfw8ugvxEdOVPnpPW53+CZg8ut8HkcGUGA4UAK7zpPkph/6GQ3nLJ8OHkfVBYK0WUKbkzU34+er3xnxwr4YxLzGfPOl86nQATC2cUu5xVU3lUveBq82F2mbem4q///qOMgXC8gPsD//7//v/+o4yBcPeA+wP//v/+//6jjIFxM4D7A//+//7//qOMgXFwgPsD//7//v/+o4yBcauA+wP//v/+//6jjIFx6ID7A//+//7//qOMgXIjgPsD//7//v/+o0EZgXJggPuDAn///n36XWir1sQQUS5zb7qltQoCBQPi4tdxLk8BvpeRa9Ci382cPc+wvufwYzyFEOAgtno3R+pdlmsiImwvGSGhbefXoAAAAAAAgaDAhIbhFPkxW41e8bUMiT5sADUNjiqZcwvHYbYQHCmGkDCAwgOXYETIBTvByFQAjGT74WIEKQV93JOzN7GASua4tfJrm5fSGj6+AQ3+RRYYi8kFdWvqLfqohXONnr/8RuhqIcl3o0uGYLxsf9vcYnir1cpVAtTYMajBxZtpEkIiIAjsdFw3rRD84h8SitgysGjbb1CdcrYawtCojj505p1PCqWxvpO5HdJtnVIreoIYIXhlKQGGLh/bthnB52ICIS7yeSc1qQSjQQiBcpyA+4MCf//+f/qUytXYnsJ8awCHi2zNBwKtalO9AibvAMD0x84vpU3aBeQY3R2myf9f5MUHf6yLwYH4ZtjVbWHzygAAAAAABibZG8xp5hlcKJIFnM34YEFkleUd3WxTon/PgjbPRt5WKhkBpJxHaRiO1CcNGjcbe/7/U/CLhFwi70DnA8KGifLP/PwZAZ7K38nNwXgUn6G9ez/njvJVHXDd9FtmKdlZgdef/CAjmph3aOr+u0HEmQWX+cIQz0U8z3JxA4oNLp5HMZ3jB3P+e2v1mox37B1wTaZzlR0EJPNLtd9PKPpXXLDqVLKwzKw1OUYxtxanEaKtTja1W0+U8JtqM8cnmROjQIuBctiA+4N/AvVTEF7lIhjhp/aKe6hWQyWJlc/dZ02jS4kVDB0qsvD/HcVpljRV3p9xTfyystELZ3IEE0PMaJ+y/F2J3P6h4rtXuZmEm8xlmhmhYqzA8KGt3/RuGmE4z0oBWIt9ad3iy86OZKNOi5JKIcIhbeLurxvlTVTEIwEpmYeupNPHR8f//v/+o4yBcxOA+wP//v/+//6jjIFzUID7A//+//7//qOMgXOMgPsD//7//v/+o4yBc8iA+wP//v/+//6jjIF0BID7A//+//7//qOMgXQ/gPsD//7//v/+o4yBdHuA+wP//v/+//6jjIF0t4D7A//+//7//qOMgXT0gPsD//7//v/+",
   "estimated_stimulus_onset": 12,
   "accelerometer_data": "[{\"x\":0,\"y\":0,\"z\":0,\"t\":140,\"interval\":16,\"event\":\"devicemotion\"},{\"x\":0,\"y\":0,\"z\":0,\"t\":156,\"interval\":16,\"event\":\"devicemotion\"},{\"x\":0.1,\"y\":0.1,\"z\":0,\"t\":173,\"interval\":16,\"event\":\"devicemotion\"},{\"x\":0.1,\"y\":0,\"z\":-0.1,\"t\":190,\"interval\":16,\"event\":\"devicemotion\"},{\"x\":0.1,\"y\":0,\"z\":-0.1,\"t\":206,\"interval\":16,\"event\":\"devicemotion\"},{\"x\":0.1,\"y\":-0.1,\"z\":-0.1,\"t\":223,\"interval\":16,\"event\":\"devicemotion\"},{\"x\":0.1,\"y\":-0.1,\"z\":-0.1,\"t\":239,\"interval\":16,\"event\":\"devicemotion\"},{\"x\":0.1,\"y\":0,\"z\":-0.2,\"t\":256,\"interval\":16,\"event\":\"devicemotion\"},{\"x\":0.1,\"y\":0,\"z\":-0.4,\"t\":273,\"interval\":16,\"event\":\"devicemotion\"},{\"x\":-0.1,\"y\":0.1,\"z\":-0.4,\"t\":289,\"interval\":16,\"event\":\"devicemotion\"},{\"x\":-0.1,\"y\":0.1,\"z\":-0.4,\"t\":306,\"interval\":16,\"event\":\"devicemotion\"},{\"x\":0,\"y\":0.1,\"z\":-0.4,\"t\":323,\"interval\":16,\"event\":\"devicemotion\"},{\"x\":0,\"y\":0.1,\"z\":-0.4,\"t\":339,\"interval\":16,\"event\":\"devicemotion\"},{\"x\":0,\"y\":0,\"z\":-0.5,\"t\":356,\"interval\":16,\"event\":\"devicemotion\"},{\"x\":0,\"y\":0,\"z\":-0.4,\"t\":373,\"interval\":16,\"event\":\"devicemotion\"},{\"x\":0,\"y\":0,\"z\":-0.4,\"t\":390,\"interval\":16,\"event\":\"devicemotion\"},{\"x\":0,\"y\":0,\"z\":-0.4,\"t\":406,\"interval\":16,\"event\":\"devicemotion\"},{\"x\":0.1,\"y\":0,\"z\":-0.4,\"t\":423,\"interval\":16,\"event\":\"devicemotion\"},{\"x\":-0.4,\"y\":0,\"z\":-0.4,\"t\":439,\"interval\":16,\"event\":\"devicemotion\"},{\"x\":0.2,\"y\":0.1,\"z\":-0.30000000000000004,\"t\":456,\"interval\":16,\"event\":\"devicemotion\"},{\"x\":-0.30000000000000004,\"y\":0.1,\"z\":-0.2,\"t\":473,\"interval\":16,\"event\":\"devicemotion\"},{\"x\":-0.2,\"y\":0.1,\"z\":-0.2,\"t\":489,\"interval\":16,\"event\":\"devicemotion\"},{\"x\":-0.2,\"y\":0.1,\"z\":-0.2,\"t\":506,\"interval\":16,\"event\":\"devicemotion\"},{\"x\":-0.2,\"y\":0.1,\"z\":-0.2,\"t\":523,\"interval\":16,\"event\":\"devicemotion\"},{\"x\":-0.30000000000000004,\"y\":0.1,\"z\":-0.2,\"t\":540,\"interval\":16,\"event\":\"devicemotion\"},{\"x\":-0.1,\"y\":0.1,\"z\":0,\"t\":556,\"interval\":16,\"event\":\"devicemotion\"},{\"x\":-0.1,\"y\":0.2,\"z\":-0.1,\"t\":573,\"interval\":16,\"event\":\"devicemotion\"},{\"x\":-0.2,\"y\":0.2,\"z\":-0.1,\"t\":589,\"interval\":16,\"event\":\"devicemotion\"},{\"x\":-0.2,\"y\":0.2,\"z\":-0.1,\"t\":606,\"interval\":16,\"event\":\"devicemotion\"},{\"x\":-0.2,\"y\":0.2,\"z\":0,\"t\":623,\"interval\":16,\"event\":\"devicemotion\"},{\"x\":-0.30000000000000004,\"y\":0,\"z\":-0.1,\"t\":640,\"interval\":16,\"event\":\"devicemotion\"},{\"x\":-0.4,\"y\":0.1,\"z\":-0.1,\"t\":657,\"interval\":16,\"event\":\"devicemotion\"},{\"x\":-0.30000000000000004,\"y\":0.2,\"z\":0,\"t\":673,\"interval\":16,\"event\":\"devicemotion\"},{\"x\":-0.30000000000000004,\"y\":0.2,\"z\":0,\"t\":690,\"interval\":16,\"event\":\"devicemotion\"},{\"x\":-0.2,\"y\":0.1,\"z\":0.1,\"t\":707,\"interval\":16,\"event\":\"devicemotion\"},{\"x\":0,\"y\":0.2,\"z\":-0.1,\"t\":723,\"interval\":16,\"event\":\"devicemotion\"},{\"x\":-0.1,\"y\":0.1,\"z\":-0.1,\"t\":740,\"interval\":16,\"event\":\"devicemotion\"},{\"x\":0.1,\"y\":0.1,\"z\":0.1,\"t\":756,\"interval\":16,\"event\":\"devicemotion\"},{\"x\":0.30000000000000004,\"y\":0.1,\"z\":-0.1,\"t\":773,\"interval\":16,\"event\":\"devicemotion\"},{\"x\":0.30000000000000004,\"y\":0.1,\"z\":-0.1,\"t\":790,\"interval\":16,\"event\":\"devicemotion\"},{\"x\":-0.30000000000000004,\"y\":-0.1,\"z\":-0.1,\"t\":806,\"interval\":16,\"event\":\"devicemotion\"},{\"x\":0,\"y\":-0.1,\"z\":-0.30000000000000004,\"t\":823,\"interval\":16,\"event\":\"devicemotion\"},{\"x\":0,\"y\":-0.1,\"z\":-0.2,\"t\":839,\"interval\":16,\"event\":\"devicemotion\"},{\"x\":-0.2,\"y\":0,\"z\":-0.2,\"t\":856,\"interval\":16,\"event\":\"devicemotion\"},{\"x\":0,\"y\":0,\"z\":-0.30000000000000004,\"t\":873,\"interval\":16,\"event\":\"devicemotion\"},{\"x\":0,\"y\":0,\"z\":-0.30000000000000004,\"t\":889,\"interval\":16,\"event\":\"devicemotion\"},{\"x\":0,\"y\":0,\"z\":-0.1,\"t\":906,\"interval\":16,\"event\":\"devicemotion\"},{\"x\":0,\"y\":-0.1,\"z\":-0.2,\"t\":923,\"interval\":16,\"event\":\"devicemotion\"},{\"x\":0,\"y\":-0.1,\"z\":-0.2,\"t\":939,\"interval\":16,\"event\":\"devicemotion\"},{\"x\":0,\"y\":0,\"z\":-0.1,\"t\":956,\"interval\":16,\"event\":\"devicemotion\"},{\"x\":-0.1,\"y\":0,\"z\":-0.2,\"t\":973,\"interval\":16,\"event\":\"devicemotion\"},{\"x\":-0.1,\"y\":0,\"z\":-0.2,\"t\":990,\"interval\":16,\"event\":\"devicemotion\"},{\"x\":0,\"y\":-0.1,\"z\":-0.2,\"t\":1007,\"interval\":16,\"event\":\"devicemotion\"},{\"x\":0,\"y\":-0.2,\"z\":-0.2,\"t\":1023,\"interval\":16,\"event\":\"devicemotion\"},{\"x\":0.1,\"y\":-0.2,\"z\":-0.2,\"t\":1040,\"interval\":16,\"event\":\"devicemotion\"},{\"x\":-0.2,\"y\":-0.2,\"z\":0,\"t\":1056,\"interval\":16,\"event\":\"devicemotion\"},{\"x\":-0.4,\"y\":-0.2,\"z\":0,\"t\":1073,\"interval\":16,\"event\":\"devicemotion\"},{\"x\":-0.4,\"y\":-0.2,\"z\":0,\"t\":1090,\"interval\":16,\"event\":\"devicemotion\"},{\"x\":-0.30000000000000004,\"y\":-0.2,\"z\":0.1,\"t\":1107,\"interval\":16,\"event\":\"devicemotion\"},{\"x\":-0.30000000000000004,\"y\":-0.1,\"z\":0.1,\"t\":1123,\"interval\":16,\"event\":\"devicemotion\"},{\"x\":-0.2,\"y\":-0.1,\"z\":0.1,\"t\":1140,\"interval\":16,\"event\":\"devicemotion\"},{\"x\":-0.30000000000000004,\"y\":-0.30000000000000004,\"z\":-0.30000000000000004,\"t\":1156,\"interval\":16,\"event\":\"devicemotion\"},{\"x\":-0.30000000000000004,\"y\":-0.30000000000000004,\"z\":-0.30000000000000004,\"t\":1173,\"interval\":16,\"event\":\"devicemotion\"},{\"x\":-0.5,\"y\":0.1,\"z\":-0.4,\"t\":1190,\"interval\":16,\"event\":\"devicemotion\"},{\"x\":-1.4000000000000001,\"y\":0.1,\"z\":-0.1,\"t\":1206,\"interval\":16,\"event\":\"devicemotion\"},{\"x\":1.1,\"y\":0.8,\"z\":-1,\"t\":1223,\"interval\":16,\"event\":\"devicemotion\"},{\"x\":0.2,\"y\":0.8,\"z\":-0.6000000000000001,\"t\":1240,\"interval\":16,\"event\":\"devicemotion\"},{\"x\":0.2,\"y\":0.4,\"z\":-0.1,\"t\":1256,\"interval\":16,\"event\":\"devicemotion\"},{\"x\":0.2,\"y\":0.4,\"z\":-0.1,\"t\":1273,\"interval\":16,\"event\":\"devicemotion\"},{\"x\":0.5,\"y\":0.2,\"z\":0,\"t\":1290,\"interval\":16,\"event\":\"devicemotion\"},{\"x\":-0.2,\"y\":0.2,\"z\":-0.4,\"t\":1307,\"interval\":16,\"event\":\"devicemotion\"},{\"x\":-0.1,\"y\":0.30000000000000004,\"z\":-1,\"t\":1324,\"interval\":16,\"event\":\"devicemotion\"},{\"x\":-0.1,\"y\":0.2,\"z\":-0.9,\"t\":1340,\"interval\":16,\"event\":\"devicemotion\"},{\"x\":-0.2,\"y\":0.1,\"z\":-0.5,\"t\":1357,\"interval\":16,\"event\":\"devicemotion\"},{\"x\":-0.2,\"y\":0.1,\"z\":-0.5,\"t\":1373,\"interval\":16,\"event\":\"devicemotion\"},{\"x\":-0.30000000000000004,\"y\":0.30000000000000004,\"z\":-0.6000000000000001,\"t\":1389,\"interval\":16,\"event\":\"devicemotion\"},{\"x\":-0.1,\"y\":0.4,\"z\":-0.8,\"t\":1406,\"interval\":16,\"event\":\"devicemotion\"},{\"x\":0,\"y\":0.4,\"z\":-0.8,\"t\":1423,\"interval\":16,\"event\":\"devicemotion\"},{\"x\":0,\"y\":0.30000000000000004,\"z\":-0.7000000000000001,\"t\":1440,\"interval\":16,\"event\":\"devicemotion\"},{\"x\":0.30000000000000004,\"y\":0.2,\"z\":-0.5,\"t\":1456,\"interval\":16,\"event\":\"devicemotion\"},{\"x\":0.30000000000000004,\"y\":0.2,\"z\":-0.5,\"t\":1473,\"interval\":16,\"event\":\"devicemotion\"},{\"x\":-0.30000000000000004,\"y\":0,\"z\":-0.5,\"t\":1490,\"interval\":16,\"event\":\"devicemotion\"},{\"x\":0.2,\"y\":0,\"z\":-0.4,\"t\":1506,\"interval\":16,\"event\":\"devicemotion\"},{\"x\":0.2,\"y\":0,\"z\":-0.5,\"t\":1523,\"interval\":16,\"event\":\"devicemotion\"},{\"x\":0.30000000000000004,\"y\":-0.1,\"z\":-0.8,\"t\":1540,\"interval\":16,\"event\":\"devicemotion\"},{\"x\":0.2,\"y\":-0.1,\"z\":-0.5,\"t\":1557,\"interval\":16,\"event\":\"devicemotion\"},{\"x\":0.2,\"y\":-0.1,\"z\":-0.5,\"t\":1573,\"interval\":16,\"event\":\"devicemotion\"},{\"x\":0.8,\"y\":0,\"z\":-0.30000000000000004,\"t\":1590,\"interval\":16,\"event\":\"devicemotion\"},{\"x\":0.30000000000000004,\"y\":-0.1,\"z\":-0.30000000000000004,\"t\":1606,\"interval\":16,\"event\":\"devicemotion\"},{\"x\":0.4,\"y\":0,\"z\":-0.30000000000000004,\"t\":1623,\"interval\":16,\"event\":\"devicemotion\"},{\"x\":0.4,\"y\":-0.1,\"z\":-0.1,\"t\":1640,\"interval\":16,\"event\":\"devicemotion\"},{\"x\":0.4,\"y\":-0.1,\"z\":-0.1,\"t\":1657,\"interval\":16,\"event\":\"devicemotion\"},{\"x\":0.1,\"y\":-0.30000000000000004,\"z\":-0.2,\"t\":1673,\"interval\":16,\"event\":\"devicemotion\"},{\"x\":0.4,\"y\":-0.2,\"z\":-0.2,\"t\":1690,\"interval\":16,\"event\":\"devicemotion\"},{\"x\":0.2,\"y\":-0.30000000000000004,\"z\":-0.2,\"t\":1706,\"interval\":16,\"event\":\"devicemotion\"},{\"x\":0.30000000000000004,\"y\":-0.30000000000000004,\"z\":-0.2,\"t\":1723,\"interval\":16,\"event\":\"devicemotion\"},{\"x\":0.6000000000000001,\"y\":-0.30000000000000004,\"z\":-0.1,\"t\":1740,\"interval\":16,\"event\":\"devicemotion\"},{\"x\":0.6000000000000001,\"y\":-0.30000000000000004,\"z\":-0.1,\"t\":1756,\"interval\":16,\"event\":\"devicemotion\"},{\"x\":0.5,\"y\":-0.4,\"z\":0,\"t\":1773,\"interval\":16,\"event\":\"devicemotion\"},{\"x\":0.30000000000000004,\"y\":-0.30000000000000004,\"z\":0,\"t\":1789,\"interval\":16,\"event\":\"devicemotion\"},{\"x\":0.1,\"y\":-0.30000000000000004,\"z\":-0.1,\"t\":1806,\"interval\":16,\"event\":\"devicemotion\"},{\"x\":0.4,\"y\":-0.4,\"z\":0,\"t\":1823,\"interval\":16,\"event\":\"devicemotion\"},{\"x\":0.4,\"y\":-0.30000000000000004,\"z\":0,\"t\":1840,\"interval\":16,\"event\":\"devicemotion\"},{\"x\":0.4,\"y\":-0.30000000000000004,\"z\":0,\"t\":1856,\"interval\":16,\"event\":\"devicemotion\"},{\"x\":0.4,\"y\":-0.30000000000000004,\"z\":0,\"t\":1873,\"interval\":16,\"event\":\"devicemotion\"},{\"x\":0.4,\"y\":-0.30000000000000004,\"z\":0.1,\"t\":1890,\"interval\":16,\"event\":\"devicemotion\"},{\"x\":0.1,\"y\":-0.4,\"z\":0.1,\"t\":1906,\"interval\":16,\"event\":\"devicemotion\"},{\"x\":0.30000000000000004,\"y\":-0.30000000000000004,\"z\":-0.1,\"t\":1923,\"interval\":16,\"event\":\"devicemotion\"},{\"x\":-0.1,\"y\":-0.30000000000000004,\"z\":-0.1,\"t\":1940,\"interval\":16,\"event\":\"devicemotion\"},{\"x\":-0.1,\"y\":-0.30000000000000004,\"z\":-0.1,\"t\":1957,\"interval\":16,\"event\":\"devicemotion\"},{\"x\":0.30000000000000004,\"y\":-0.30000000000000004,\"z\":0,\"t\":1973,\"interval\":16,\"event\":\"devicemotion\"},{\"x\":-0.2,\"y\":-0.30000000000000004,\"z\":0.1,\"t\":1989,\"interval\":16,\"event\":\"devicemotion\"},{\"x\":0.30000000000000004,\"y\":-0.4,\"z\":-0.1,\"t\":2006,\"interval\":16,\"event\":\"devicemotion\"},{\"x\":-0.1,\"y\":-0.4,\"z\":-0.1,\"t\":2023,\"interval\":16,\"event\":\"devicemotion\"},{\"x\":-0.1,\"y\":-0.4,\"z\":-0.1,\"t\":2040,\"interval\":16,\"event\":\"devicemotion\"},{\"x\":-0.1,\"y\":-0.30000000000000004,\"z\":-0.1,\"t\":2056,\"interval\":16,\"event\":\"devicemotion\"},{\"x\":0,\"y\":-0.30000000000000004,\"z\":0,\"t\":2073,\"interval\":16,\"event\":\"devicemotion\"},{\"x\":-0.1,\"y\":-0.2,\"z\":-0.1,\"t\":2090,\"interval\":16,\"event\":\"devicemotion\"},{\"x\":-0.1,\"y\":-0.2,\"z\":-0.1,\"t\":2106,\"interval\":16,\"event\":\"devicemotion\"},{\"x\":0,\"y\":-0.2,\"z\":-0.1,\"t\":2123,\"interval\":16,\"event\":\"devicemotion\"},{\"x\":0,\"y\":-0.2,\"z\":-0.1,\"t\":2140,\"interval\":16,\"event\":\"devicemotion\"},{\"x\":-0.1,\"y\":-0.1,\"z\":-0.2,\"t\":2156,\"interval\":16,\"event\":\"devicemotion\"},{\"x\":0.1,\"y\":0,\"z\":0,\"t\":2173,\"interval\":16,\"event\":\"devicemotion\"},{\"x\":-0.2,\"y\":-0.1,\"z\":-0.2,\"t\":2190,\"interval\":16,\"event\":\"devicemotion\"},{\"x\":0.30000000000000004,\"y\":0,\"z\":-0.2,\"t\":2206,\"interval\":16,\"event\":\"devicemotion\"},{\"x\":0.30000000000000004,\"y\":0,\"z\":-0.2,\"t\":2223,\"interval\":16,\"event\":\"devicemotion\"},{\"x\":0.30000000000000004,\"y\":0,\"z\":-0.2,\"t\":2240,\"interval\":16,\"event\":\"devicemotion\"},{\"x\":0.1,\"y\":-0.1,\"z\":-0.2,\"t\":2256,\"interval\":16,\"event\":\"devicemotion\"},{\"x\":0.4,\"y\":0,\"z\":-0.2,\"t\":2273,\"interval\":16,\"event\":\"devicemotion\"},{\"x\":0.6000000000000001,\"y\":-0.1,\"z\":-0.2,\"t\":2290,\"interval\":16,\"event\":\"devicemotion\"},{\"x\":0.30000000000000004,\"y\":-0.1,\"z\":-0.2,\"t\":2306,\"interval\":16,\"event\":\"devicemotion\"},{\"x\":0.5,\"y\":-0.1,\"z\":0,\"t\":2323,\"interval\":16,\"event\":\"devicemotion\"},{\"x\":0.5,\"y\":-0.1,\"z\":0,\"t\":2340,\"interval\":16,\"event\":\"devicemotion\"},{\"x\":0.2,\"y\":-0.1,\"z\":-0.1,\"t\":2358,\"interval\":16,\"event\":\"devicemotion\"},{\"x\":-0.1,\"y\":0,\"z\":0,\"t\":2373,\"interval\":16,\"event\":\"devicemotion\"},{\"x\":-0.30000000000000004,\"y\":0,\"z\":0.1,\"t\":2389,\"interval\":16,\"event\":\"devicemotion\"},{\"x\":0.2,\"y\":0.1,\"z\":0.1,\"t\":2406,\"interval\":16,\"event\":\"devicemotion\"},{\"x\":-0.30000000000000004,\"y\":0,\"z\":0.1,\"t\":2423,\"interval\":16,\"event\":\"devicemotion\"},{\"x\":-0.30000000000000004,\"y\":0,\"z\":0.1,\"t\":2440,\"interval\":16,\"event\":\"devicemotion\"},{\"x\":0.2,\"y\":-0.1,\"z\":-0.1,\"t\":2456,\"interval\":16,\"event\":\"devicemotion\"},{\"x\":-0.2,\"y\":-0.1,\"z\":-0.2,\"t\":2473,\"interval\":16,\"event\":\"devicemotion\"},{\"x\":-0.2,\"y\":0,\"z\":0,\"t\":2490,\"interval\":16,\"event\":\"devicemotion\"},{\"x\":-0.2,\"y\":0,\"z\":0.1,\"t\":2506,\"interval\":16,\"event\":\"devicemotion\"},{\"x\":-0.1,\"y\":0.1,\"z\":0,\"t\":2525,\"interval\":16,\"event\":\"devicemotion\"},{\"x\":-0.1,\"y\":0.1,\"z\":0,\"t\":2539,\"interval\":16,\"event\":\"devicemotion\"},{\"x\":0,\"y\":0.1,\"z\":0.1,\"t\":2556,\"interval\":16,\"event\":\"devicemotion\"},{\"x\":0,\"y\":0.1,\"z\":0,\"t\":2573,\"interval\":16,\"event\":\"devicemotion\"},{\"x\":0,\"y\":0.1,\"z\":0,\"t\":2589,\"interval\":16,\"event\":\"devicemotion\"},{\"x\":-0.5,\"y\":0.1,\"z\":-0.1,\"t\":2607,\"interval\":16,\"event\":\"devicemotion\"},{\"x\":-0.5,\"y\":0.1,\"z\":-0.1,\"t\":2623,\"interval\":16,\"event\":\"devicemotion\"},{\"x\":-0.5,\"y\":0.1,\"z\":0,\"t\":2640,\"interval\":16,\"event\":\"devicemotion\"},{\"x\":-0.2,\"y\":0.1,\"z\":0,\"t\":2656,\"interval\":16,\"event\":\"devicemotion\"},{\"x\":-0.4,\"y\":0.1,\"z\":0,\"t\":2673,\"interval\":16,\"event\":\"devicemotion\"},{\"x\":-0.2,\"y\":0.1,\"z\":-0.1,\"t\":2690,\"interval\":16,\"event\":\"devicemotion\"},{\"x\":0.1,\"y\":0.1,\"z\":0,\"t\":2706,\"interval\":16,\"event\":\"devicemotion\"},{\"x\":0.1,\"y\":0.1,\"z\":0,\"t\":2723,\"interval\":16,\"event\":\"devicemotion\"},{\"x\":0.1,\"y\":0.1,\"z\":0,\"t\":2740,\"interval\":16,\"event\":\"devicemotion\"},{\"x\":-0.4,\"y\":0.1,\"z\":-0.1,\"t\":2756,\"interval\":16,\"event\":\"devicemotion\"},{\"x\":0.1,\"y\":0.1,\"z\":0,\"t\":2773,\"interval\":16,\"event\":\"devicemotion\"},{\"x\":0.1,\"y\":0.1,\"z\":0.1,\"t\":2790,\"interval\":16,\"event\":\"devicemotion\"},{\"x\":0.1,\"y\":0.1,\"z\":0.1,\"t\":2807,\"interval\":16,\"event\":\"devicemotion\"},{\"x\":0,\"y\":0,\"z\":0,\"t\":2823,\"interval\":16,\"event\":\"devicemotion\"},{\"x\":-0.2,\"y\":0.1,\"z\":-0.2,\"t\":2839,\"interval\":16,\"event\":\"devicemotion\"},{\"x\":0,\"y\":0.1,\"z\":0,\"t\":2856,\"interval\":16,\"event\":\"devicemotion\"},{\"x\":0,\"y\":0.2,\"z\":0.1,\"t\":2874,\"interval\":16,\"event\":\"devicemotion\"},{\"x\":0,\"y\":0.2,\"z\":0.1,\"t\":2890,\"interval\":16,\"event\":\"devicemotion\"},{\"x\":0.1,\"y\":0.2,\"z\":-0.2,\"t\":2906,\"interval\":16,\"event\":\"devicemotion\"},{\"x\":0.1,\"y\":0.2,\"z\":-0.2,\"t\":2923,\"interval\":16,\"event\":\"devicemotion\"},{\"x\":0,\"y\":0.2,\"z\":-0.1,\"t\":2940,\"interval\":16,\"event\":\"devicemotion\"},{\"x\":0,\"y\":0.2,\"z\":-0.1,\"t\":2956,\"interval\":16,\"event\":\"devicemotion\"},{\"x\":0,\"y\":0.1,\"z\":-0.1,\"t\":2973,\"interval\":16,\"event\":\"devicemotion\"},{\"x\":-0.30000000000000004,\"y\":0.2,\"z\":0,\"t\":2989,\"interval\":16,\"event\":\"devicemotion\"},{\"x\":-0.30000000000000004,\"y\":0.2,\"z\":0,\"t\":3007,\"interval\":16,\"event\":\"devicemotion\"},{\"x\":-0.1,\"y\":0.2,\"z\":-0.1,\"t\":3023,\"interval\":16,\"event\":\"devicemotion\"},{\"x\":-0.1,\"y\":0.2,\"z\":-0.1,\"t\":3040,\"interval\":16,\"event\":\"devicemotion\"},{\"x\":-0.1,\"y\":0.1,\"z\":-0.1,\"t\":3056,\"interval\":16,\"event\":\"devicemotion\"},{\"x\":-0.1,\"y\":0,\"z\":0,\"t\":3073,\"interval\":16,\"event\":\"devicemotion\"},{\"x\":0.2,\"y\":0.1,\"z\":-0.1,\"t\":3090,\"interval\":16,\"event\":\"devicemotion\"},{\"x\":0.2,\"y\":0.1,\"z\":-0.1,\"t\":3106,\"interval\":16,\"event\":\"devicemotion\"},{\"x\":0.1,\"y\":0.1,\"z\":0,\"t\":3123,\"interval\":16,\"event\":\"devicemotion\"},{\"x\":-0.1,\"y\":0,\"z\":0.1,\"t\":3140,\"interval\":16,\"event\":\"devicemotion\"},{\"x\":-0.30000000000000004,\"y\":0,\"z\":0.1,\"t\":3156,\"interval\":16,\"event\":\"devicemotion\"},{\"x\":-0.30000000000000004,\"y\":0,\"z\":0,\"t\":3173,\"interval\":16,\"event\":\"devicemotion\"},{\"x\":-0.30000000000000004,\"y\":0,\"z\":0,\"t\":3190,\"interval\":16,\"event\":\"devicemotion\"},{\"x\":-0.30000000000000004,\"y\":0,\"z\":0,\"t\":3206,\"interval\":16,\"event\":\"devicemotion\"},{\"x\":0,\"y\":0,\"z\":0.1,\"t\":3223,\"interval\":16,\"event\":\"devicemotion\"},{\"x\":0.2,\"y\":0,\"z\":-0.1,\"t\":3240,\"interval\":16,\"event\":\"devicemotion\"},{\"x\":-0.2,\"y\":0,\"z\":-0.1,\"t\":3256,\"interval\":16,\"event\":\"devicemotion\"},{\"x\":-0.2,\"y\":0,\"z\":-0.1,\"t\":3273,\"interval\":16,\"event\":\"devicemotion\"},{\"x\":-0.2,\"y\":0,\"z\":0.1,\"t\":3289,\"interval\":16,\"event\":\"devicemotion\"},{\"x\":-0.2,\"y\":0,\"z\":0.1,\"t\":3306,\"interval\":16,\"event\":\"devicemotion\"},{\"x\":-0.2,\"y\":0.1,\"z\":0,\"t\":3323,\"interval\":16,\"event\":\"devicemotion\"},{\"x\":-0.30000000000000004,\"y\":0,\"z\":-0.1,\"t\":3340,\"interval\":16,\"event\":\"devicemotion\"},{\"x\":-0.2,\"y\":0.1,\"z\":-0.2,\"t\":3356,\"interval\":16,\"event\":\"devicemotion\"},{\"x\":-0.2,\"y\":0.1,\"z\":-0.1,\"t\":3373,\"interval\":16,\"event\":\"devicemotion\"},{\"x\":-0.2,\"y\":0.1,\"z\":0,\"t\":3391,\"interval\":16,\"event\":\"devicemotion\"},{\"x\":-0.2,\"y\":0.1,\"z\":0,\"t\":3406,\"interval\":16,\"event\":\"devicemotion\"},{\"x\":-0.2,\"y\":0.2,\"z\":-0.1,\"t\":3423,\"interval\":16,\"event\":\"devicemotion\"},{\"x\":-0.2,\"y\":0.2,\"z\":-0.1,\"t\":3439,\"interval\":16,\"event\":\"devicemotion\"},{\"x\":0.1,\"y\":0.1,\"z\":-0.1,\"t\":3456,\"interval\":16,\"event\":\"devicemotion\"},{\"x\":-0.1,\"y\":0.1,\"z\":-0.2,\"t\":3473,\"interval\":16,\"event\":\"devicemotion\"},{\"x\":-0.1,\"y\":0.1,\"z\":-0.2,\"t\":3489,\"interval\":16,\"event\":\"devicemotion\"},{\"x\":-0.1,\"y\":0.1,\"z\":-0.1,\"t\":3506,\"interval\":16,\"event\":\"devicemotion\"},{\"x\":0.1,\"y\":0.2,\"z\":-0.1,\"t\":3523,\"interval\":16,\"event\":\"devicemotion\"},{\"x\":0.30000000000000004,\"y\":0.1,\"z\":-0.1,\"t\":3540,\"interval\":16,\"event\":\"devicemotion\"},{\"x\":0.30000000000000004,\"y\":0.1,\"z\":-0.1,\"t\":3556,\"interval\":16,\"event\":\"devicemotion\"},{\"x\":0,\"y\":0.1,\"z\":-0.1,\"t\":3573,\"interval\":16,\"event\":\"devicemotion\"},{\"x\":0,\"y\":0.1,\"z\":-0.1,\"t\":3590,\"interval\":16,\"event\":\"devicemotion\"},{\"x\":0,\"y\":0.1,\"z\":-0.1,\"t\":3607,\"interval\":16,\"event\":\"devicemotion\"},{\"x\":-0.1,\"y\":0.1,\"z\":0.1,\"t\":3623,\"interval\":16,\"event\":\"devicemotion\"},{\"x\":0,\"y\":0.1,\"z\":0.1,\"t\":3640,\"interval\":16,\"event\":\"devicemotion\"},{\"x\":0.30000000000000004,\"y\":0.2,\"z\":-0.1,\"t\":3656,\"interval\":16,\"event\":\"devicemotion\"},{\"x\":-0.1,\"y\":0.2,\"z\":-0.1,\"t\":3673,\"interval\":16,\"event\":\"devicemotion\"},{\"x\":-0.1,\"y\":0.2,\"z\":-0.1,\"t\":3690,\"interval\":16,\"event\":\"devicemotion\"},{\"x\":-0.1,\"y\":0.2,\"z\":0,\"t\":3706,\"interval\":16,\"event\":\"devicemotion\"},{\"x\":0,\"y\":0.2,\"z\":0,\"t\":3723,\"interval\":16,\"event\":\"devicemotion\"},{\"x\":-0.1,\"y\":0.2,\"z\":-0.1,\"t\":3740,\"interval\":16,\"event\":\"devicemotion\"},{\"x\":-0.1,\"y\":0.2,\"z\":0,\"t\":3756,\"interval\":16,\"event\":\"devicemotion\"},{\"x\":-0.1,\"y\":0.2,\"z\":0,\"t\":3773,\"interval\":16,\"event\":\"devicemotion\"},{\"x\":-0.1,\"y\":0.2,\"z\":0,\"t\":3790,\"interval\":16,\"event\":\"devicemotion\"},{\"x\":-0.5,\"y\":0.2,\"z\":-0.2,\"t\":3806,\"interval\":16,\"event\":\"devicemotion\"},{\"x\":-0.4,\"y\":0.2,\"z\":-0.1,\"t\":3823,\"interval\":16,\"event\":\"devicemotion\"},{\"x\":-0.4,\"y\":0.1,\"z\":0.1,\"t\":3840,\"interval\":16,\"event\":\"devicemotion\"},{\"x\":-0.4,\"y\":0.2,\"z\":0,\"t\":3856,\"interval\":16,\"event\":\"devicemotion\"},{\"x\":-0.4,\"y\":0.2,\"z\":0,\"t\":3873,\"interval\":16,\"event\":\"devicemotion\"},{\"x\":0.1,\"y\":0.1,\"z\":0.1,\"t\":3889,\"interval\":16,\"event\":\"devicemotion\"},{\"x\":0,\"y\":0.1,\"z\":0,\"t\":3906,\"interval\":16,\"event\":\"devicemotion\"},{\"x\":-0.1,\"y\":0,\"z\":-0.1,\"t\":3923,\"interval\":16,\"event\":\"devicemotion\"},{\"x\":0.4,\"y\":0.1,\"z\":-0.1,\"t\":3940,\"interval\":16,\"event\":\"devicemotion\"},{\"x\":-0.1,\"y\":0,\"z\":0,\"t\":3956,\"interval\":16,\"event\":\"devicemotion\"},{\"x\":-0.1,\"y\":0,\"z\":0,\"t\":3973,\"interval\":16,\"event\":\"devicemotion\"},{\"x\":0,\"y\":0.1,\"z\":0,\"t\":3990,\"interval\":16,\"event\":\"devicemotion\"},{\"x\":0,\"y\":0.1,\"z\":0,\"t\":4006,\"interval\":16,\"event\":\"devicemotion\"},{\"x\":0.1,\"y\":0.2,\"z\":0,\"t\":4023,\"interval\":16,\"event\":\"devicemotion\"},{\"x\":0,\"y\":0.1,\"z\":0,\"t\":4040,\"interval\":16,\"event\":\"devicemotion\"},{\"x\":0,\"y\":0.1,\"z\":-0.1,\"t\":4056,\"interval\":16,\"event\":\"devicemotion\"},{\"x\":0,\"y\":0.1,\"z\":-0.1,\"t\":4073,\"interval\":16,\"event\":\"devicemotion\"},{\"x\":0,\"y\":0.1,\"z\":-0.1,\"t\":4090,\"interval\":16,\"event\":\"devicemotion\"},{\"x\":-0.6000000000000001,\"y\":0.2,\"z\":0,\"t\":4106,\"interval\":16,\"event\":\"devicemotion\"},{\"x\":-0.30000000000000004,\"y\":0.2,\"z\":-0.1,\"t\":4123,\"interval\":16,\"event\":\"devicemotion\"},{\"x\":-0.1,\"y\":0.2,\"z\":-0.2,\"t\":4140,\"interval\":16,\"event\":\"devicemotion\"},{\"x\":0,\"y\":0.1,\"z\":-0.1,\"t\":4156,\"interval\":16,\"event\":\"devicemotion\"},{\"x\":0,\"y\":0.1,\"z\":-0.1,\"t\":4173,\"interval\":16,\"event\":\"devicemotion\"},{\"x\":-0.30000000000000004,\"y\":0,\"z\":-0.2,\"t\":4190,\"interval\":16,\"event\":\"devicemotion\"},{\"x\":0.1,\"y\":0,\"z\":-0.4,\"t\":4206,\"interval\":16,\"event\":\"devicemotion\"},{\"x\":0.2,\"y\":0,\"z\":-0.30000000000000004,\"t\":4223,\"interval\":16,\"event\":\"devicemotion\"},{\"x\":-0.1,\"y\":0.1,\"z\":-0.30000000000000004,\"t\":4240,\"interval\":16,\"event\":\"devicemotion\"},{\"x\":-0.30000000000000004,\"y\":0,\"z\":-0.4,\"t\":4256,\"interval\":16,\"event\":\"devicemotion\"},{\"x\":-0.30000000000000004,\"y\":0,\"z\":-0.4,\"t\":4273,\"interval\":16,\"event\":\"devicemotion\"},{\"x\":-0.1,\"y\":-0.1,\"z\":-0.1,\"t\":4290,\"interval\":16,\"event\":\"devicemotion\"},{\"x\":0.2,\"y\":-0.1,\"z\":0,\"t\":4307,\"interval\":16,\"event\":\"devicemotion\"},{\"x\":0,\"y\":0,\"z\":-0.1,\"t\":4323,\"interval\":16,\"event\":\"devicemotion\"},{\"x\":0.1,\"y\":0,\"z\":0,\"t\":4340,\"interval\":16,\"event\":\"devicemotion\"},{\"x\":0.1,\"y\":0,\"z\":0,\"t\":4356,\"interval\":16,\"event\":\"devicemotion\"},{\"x\":0.1,\"y\":0,\"z\":0.1,\"t\":4373,\"interval\":16,\"event\":\"devicemotion\"},{\"x\":0.2,\"y\":0,\"z\":0.30000000000000004,\"t\":4390,\"interval\":16,\"event\":\"devicemotion\"},{\"x\":0.2,\"y\":0.1,\"z\":0.30000000000000004,\"t\":4406,\"interval\":16,\"event\":\"devicemotion\"},{\"x\":0.2,\"y\":0.1,\"z\":0.30000000000000004,\"t\":4423,\"interval\":16,\"event\":\"devicemotion\"},{\"x\":0,\"y\":0.1,\"z\":0.2,\"t\":4440,\"interval\":16,\"event\":\"devicemotion\"},{\"x\":0.1,\"y\":0.1,\"z\":0.2,\"t\":4456,\"interval\":16,\"event\":\"devicemotion\"},{\"x\":0.1,\"y\":0.1,\"z\":0.2,\"t\":4473,\"interval\":16,\"event\":\"devicemotion\"},{\"x\":0.1,\"y\":0.1,\"z\":0.1,\"t\":4489,\"interval\":16,\"event\":\"devicemotion\"},{\"x\":-0.1,\"y\":0.2,\"z\":0.1,\"t\":4506,\"interval\":16,\"event\":\"devicemotion\"},{\"x\":-0.30000000000000004,\"y\":0.2,\"z\":0.1,\"t\":4523,\"interval\":16,\"event\":\"devicemotion\"},{\"x\":-0.2,\"y\":0.2,\"z\":0,\"t\":4540,\"interval\":16,\"event\":\"devicemotion\"},{\"x\":-0.2,\"y\":0.2,\"z\":0,\"t\":4556,\"interval\":16,\"event\":\"devicemotion\"},{\"x\":-0.2,\"y\":0.2,\"z\":0,\"t\":4573,\"interval\":16,\"event\":\"devicemotion\"},{\"x\":-0.2,\"y\":0.2,\"z\":0,\"t\":4589,\"interval\":16,\"event\":\"devicemotion\"},{\"x\":-0.2,\"y\":0.2,\"z\":0,\"t\":4606,\"interval\":16,\"event\":\"devicemotion\"},{\"x\":-0.2,\"y\":0.2,\"z\":-0.1,\"t\":4623,\"interval\":16,\"event\":\"devicemotion\"},{\"x\":-0.2,\"y\":0.2,\"z\":0.1,\"t\":4640,\"interval\":16,\"event\":\"devicemotion\"},{\"x\":-0.2,\"y\":0.2,\"z\":0.1,\"t\":4656,\"interval\":16,\"event\":\"devicemotion\"},{\"x\":-0.2,\"y\":0.1,\"z\":0.1,\"t\":4673,\"interval\":16,\"event\":\"devicemotion\"},{\"x\":-0.1,\"y\":0.1,\"z\":0,\"t\":4690,\"interval\":16,\"event\":\"devicemotion\"},{\"x\":-0.1,\"y\":0.1,\"z\":0.1,\"t\":4706,\"interval\":16,\"event\":\"devicemotion\"},{\"x\":-0.1,\"y\":0.2,\"z\":0.1,\"t\":4723,\"interval\":16,\"event\":\"devicemotion\"},{\"x\":0.1,\"y\":0.2,\"z\":0.1,\"t\":4740,\"interval\":16,\"event\":\"devicemotion\"},{\"x\":0.1,\"y\":0.2,\"z\":0.1,\"t\":4756,\"interval\":16,\"event\":\"devicemotion\"},{\"x\":0.30000000000000004,\"y\":0.1,\"z\":0.2,\"t\":4773,\"interval\":16,\"event\":\"devicemotion\"},{\"x\":-0.2,\"y\":0.1,\"z\":0.1,\"t\":4790,\"interval\":16,\"event\":\"devicemotion\"},{\"x\":-0.1,\"y\":0.1,\"z\":0.1,\"t\":4806,\"interval\":16,\"event\":\"devicemotion\"},{\"x\":0,\"y\":0,\"z\":0.1,\"t\":4823,\"interval\":16,\"event\":\"devicemotion\"},{\"x\":-0.1,\"y\":0,\"z\":0.1,\"t\":4839,\"interval\":16,\"event\":\"devicemotion\"},{\"x\":-0.1,\"y\":0,\"z\":0.1,\"t\":4856,\"interval\":16,\"event\":\"devicemotion\"},{\"x\":-0.1,\"y\":0.1,\"z\":0.1,\"t\":4873,\"interval\":16,\"event\":\"devicemotion\"},{\"x\":-0.2,\"y\":0,\"z\":0.1,\"t\":4890,\"interval\":16,\"event\":\"devicemotion\"},{\"x\":-0.2,\"y\":0.1,\"z\":0.1,\"t\":4906,\"interval\":16,\"event\":\"devicemotion\"},{\"x\":0.1,\"y\":0.1,\"z\":0.1,\"t\":4923,\"interval\":16,\"event\":\"devicemotion\"},{\"x\":0.1,\"y\":0.1,\"z\":0.1,\"t\":4940,\"interval\":16,\"event\":\"devicemotion\"},{\"x\":-0.2,\"y\":0.1,\"z\":0.1,\"t\":4956,\"interval\":16,\"event\":\"devicemotion\"},{\"x\":0.1,\"y\":0,\"z\":-0.1,\"t\":4973,\"interval\":16,\"event\":\"devicemotion\"},{\"x\":0.2,\"y\":0.1,\"z\":0,\"t\":4989,\"interval\":16,\"event\":\"devicemotion\"},{\"x\":0.30000000000000004,\"y\":0,\"z\":0,\"t\":5007,\"interval\":16,\"event\":\"devicemotion\"},{\"x\":0.4,\"y\":-0.1,\"z\":-0.1,\"t\":5023,\"interval\":16,\"event\":\"devicemotion\"},{\"x\":0.4,\"y\":-0.1,\"z\":-0.1,\"t\":5039,\"interval\":16,\"event\":\"devicemotion\"},{\"x\":0.30000000000000004,\"y\":-0.1,\"z\":-0.1,\"t\":5056,\"interval\":16,\"event\":\"devicemotion\"},{\"x\":0.2,\"y\":-0.1,\"z\":0,\"t\":5073,\"interval\":16,\"event\":\"devicemotion\"},{\"x\":-0.30000000000000004,\"y\":-0.1,\"z\":-0.1,\"t\":5089,\"interval\":16,\"event\":\"devicemotion\"},{\"x\":-0.30000000000000004,\"y\":-0.2,\"z\":0,\"t\":5106,\"interval\":16,\"event\":\"devicemotion\"},{\"x\":-0.5,\"y\":-0.2,\"z\":-0.1,\"t\":5123,\"interval\":16,\"event\":\"devicemotion\"},{\"x\":-0.5,\"y\":-0.2,\"z\":-0.1,\"t\":5140,\"interval\":16,\"event\":\"devicemotion\"},{\"x\":-0.4,\"y\":-0.30000000000000004,\"z\":0,\"t\":5156,\"interval\":16,\"event\":\"devicemotion\"},{\"x\":-0.30000000000000004,\"y\":-0.2,\"z\":0.1,\"t\":5173,\"interval\":16,\"event\":\"devicemotion\"},{\"x\":-0.5,\"y\":-0.1,\"z\":0.1,\"t\":5190,\"interval\":16,\"event\":\"devicemotion\"},{\"x\":-0.5,\"y\":-0.2,\"z\":0.2,\"t\":5206,\"interval\":16,\"event\":\"devicemotion\"},{\"x\":-0.5,\"y\":-0.2,\"z\":0.2,\"t\":5223,\"interval\":16,\"event\":\"devicemotion\"},{\"x\":-0.5,\"y\":-0.2,\"z\":0.1,\"t\":5240,\"interval\":16,\"event\":\"devicemotion\"},{\"x\":-0.2,\"y\":-0.1,\"z\":0.1,\"t\":5257,\"interval\":16,\"event\":\"devicemotion\"},{\"x\":-0.1,\"y\":0,\"z\":0.1,\"t\":5273,\"interval\":16,\"event\":\"devicemotion\"},{\"x\":0.1,\"y\":0.1,\"z\":0.1,\"t\":5290,\"interval\":16,\"event\":\"devicemotion\"},{\"x\":0.4,\"y\":0.1,\"z\":0,\"t\":5306,\"interval\":16,\"event\":\"devicemotion\"},{\"x\":0.4,\"y\":0.1,\"z\":0,\"t\":5323,\"interval\":16,\"event\":\"devicemotion\"},{\"x\":0.30000000000000004,\"y\":0.2,\"z\":0,\"t\":5345,\"interval\":16,\"event\":\"devicemotion\"},{\"x\":0.4,\"y\":0.2,\"z\":0,\"t\":5356,\"interval\":16,\"event\":\"devicemotion\"},{\"x\":0.6000000000000001,\"y\":0.2,\"z\":-0.1,\"t\":5373,\"interval\":16,\"event\":\"devicemotion\"},{\"x\":0.5,\"y\":0.1,\"z\":-0.2,\"t\":5389,\"interval\":16,\"event\":\"devicemotion\"},{\"x\":0.4,\"y\":0.1,\"z\":-0.30000000000000004,\"t\":5408,\"interval\":16,\"event\":\"devicemotion\"},{\"x\":0.4,\"y\":0.1,\"z\":-0.30000000000000004,\"t\":5423,\"interval\":16,\"event\":\"devicemotion\"},{\"x\":0.8,\"y\":0.1,\"z\":-0.30000000000000004,\"t\":5439,\"interval\":16,\"event\":\"devicemotion\"},{\"x\":0.9,\"y\":0,\"z\":-0.2,\"t\":5456,\"interval\":16,\"event\":\"devicemotion\"},{\"x\":1,\"y\":-0.1,\"z\":-0.2,\"t\":5473,\"interval\":16,\"event\":\"devicemotion\"},{\"x\":1,\"y\":0,\"z\":-0.30000000000000004,\"t\":5490,\"interval\":16,\"event\":\"devicemotion\"},{\"x\":0.8,\"y\":0,\"z\":-0.4,\"t\":5506,\"interval\":16,\"event\":\"devicemotion\"},{\"x\":0.8,\"y\":0,\"z\":-0.4,\"t\":5523,\"interval\":16,\"event\":\"devicemotion\"},{\"x\":1,\"y\":0.1,\"z\":-0.4,\"t\":5539,\"interval\":16,\"event\":\"devicemotion\"},{\"x\":1,\"y\":0.1,\"z\":-0.4,\"t\":5556,\"interval\":16,\"event\":\"devicemotion\"},{\"x\":1.5,\"y\":0.1,\"z\":-0.30000000000000004,\"t\":5573,\"interval\":16,\"event\":\"devicemotion\"},{\"x\":2,\"y\":0.2,\"z\":-0.2,\"t\":5589,\"interval\":16,\"event\":\"devicemotion\"},{\"x\":2.1,\"y\":0.30000000000000004,\"z\":0,\"t\":5606,\"interval\":16,\"event\":\"devicemotion\"},{\"x\":2.1,\"y\":0.30000000000000004,\"z\":0,\"t\":5623,\"interval\":16,\"event\":\"devicemotion\"},{\"x\":1.6,\"y\":0.4,\"z\":0.2,\"t\":5640,\"interval\":16,\"event\":\"devicemotion\"},{\"x\":0.9,\"y\":0.30000000000000004,\"z\":0.7000000000000001,\"t\":5656,\"interval\":16,\"event\":\"devicemotion\"},{\"x\":-2.7,\"y\":0.1,\"z\":0.2,\"t\":5673,\"interval\":16,\"event\":\"devicemotion\"},{\"x\":-3.9000000000000004,\"y\":-0.1,\"z\":0.30000000000000004,\"t\":5689,\"interval\":16,\"event\":\"devicemotion\"},{\"x\":-3.9000000000000004,\"y\":-0.1,\"z\":0.30000000000000004,\"t\":5707,\"interval\":16,\"event\":\"devicemotion\"},{\"x\":-5.1000000000000005,\"y\":0.1,\"z\":0.30000000000000004,\"t\":5723,\"interval\":16,\"event\":\"devicemotion\"},{\"x\":-5.800000000000001,\"y\":0.30000000000000004,\"z\":0.30000000000000004,\"t\":5740,\"interval\":16,\"event\":\"devicemotion\"},{\"x\":-5,\"y\":0.2,\"z\":0.1,\"t\":5756,\"interval\":16,\"event\":\"devicemotion\"},{\"x\":-4.5,\"y\":0.4,\"z\":0.30000000000000004,\"t\":5773,\"interval\":16,\"event\":\"devicemotion\"},{\"x\":-3.3000000000000003,\"y\":0.4,\"z\":0.1,\"t\":5790,\"interval\":16,\"event\":\"devicemotion\"},{\"x\":-2,\"y\":0.30000000000000004,\"z\":0.1,\"t\":5806,\"interval\":16,\"event\":\"devicemotion\"},{\"x\":-2,\"y\":0.30000000000000004,\"z\":0.1,\"t\":5823,\"interval\":16,\"event\":\"devicemotion\"},{\"x\":-0.9,\"y\":0.4,\"z\":-0.1,\"t\":5840,\"interval\":16,\"event\":\"devicemotion\"},{\"x\":0.30000000000000004,\"y\":0.5,\"z\":0,\"t\":5856,\"interval\":16,\"event\":\"devicemotion\"},{\"x\":1.8,\"y\":0.5,\"z\":0.2,\"t\":5873,\"interval\":16,\"event\":\"devicemotion\"},{\"x\":2.5,\"y\":0.5,\"z\":0.1,\"t\":5890,\"interval\":16,\"event\":\"devicemotion\"},{\"x\":2.5,\"y\":0.5,\"z\":0.1,\"t\":5906,\"interval\":16,\"event\":\"devicemotion\"},{\"x\":3,\"y\":0.5,\"z\":-0.2,\"t\":5923,\"interval\":16,\"event\":\"devicemotion\"},{\"x\":3.3000000000000003,\"y\":0.5,\"z\":-0.1,\"t\":5940,\"interval\":16,\"event\":\"devicemotion\"},{\"x\":3.8000000000000003,\"y\":0.7000000000000001,\"z\":-0.2,\"t\":5956,\"interval\":16,\"event\":\"devicemotion\"},{\"x\":4.1000000000000005,\"y\":0.7000000000000001,\"z\":-0.2,\"t\":5973,\"interval\":16,\"event\":\"devicemotion\"},{\"x\":4.1000000000000005,\"y\":0.6000000000000001,\"z\":-0.30000000000000004,\"t\":5989,\"interval\":16,\"event\":\"devicemotion\"},{\"x\":4.1000000000000005,\"y\":0.6000000000000001,\"z\":-0.30000000000000004,\"t\":6006,\"interval\":16,\"event\":\"devicemotion\"},{\"x\":3.4000000000000004,\"y\":0.5,\"z\":-0.6000000000000001,\"t\":6023,\"interval\":16,\"event\":\"devicemotion\"},{\"x\":3.4000000000000004,\"y\":0.8,\"z\":-0.6000000000000001,\"t\":6039,\"interval\":16,\"event\":\"devicemotion\"},{\"x\":2.9000000000000004,\"y\":0.6000000000000001,\"z\":-0.4,\"t\":6056,\"interval\":16,\"event\":\"devicemotion\"},{\"x\":1.9000000000000001,\"y\":0.5,\"z\":-0.4,\"t\":6073,\"interval\":16,\"event\":\"devicemotion\"},{\"x\":1.3,\"y\":0.6000000000000001,\"z\":-0.4,\"t\":6089,\"interval\":16,\"event\":\"devicemotion\"},{\"x\":1.3,\"y\":0.6000000000000001,\"z\":-0.4,\"t\":6106,\"interval\":16,\"event\":\"devicemotion\"},{\"x\":0.4,\"y\":0.5,\"z\":0.2,\"t\":6123,\"interval\":16,\"event\":\"devicemotion\"},{\"x\":-1.6,\"y\":0.30000000000000004,\"z\":0.1,\"t\":6139,\"interval\":16,\"event\":\"devicemotion\"},{\"x\":-3.8000000000000003,\"y\":0.1,\"z\":-0.7000000000000001,\"t\":6156,\"interval\":16,\"event\":\"devicemotion\"},{\"x\":-5.800000000000001,\"y\":0,\"z\":-0.7000000000000001,\"t\":6173,\"interval\":16,\"event\":\"devicemotion\"},{\"x\":-6.6000000000000005,\"y\":-0.30000000000000004,\"z\":0.5,\"t\":6189,\"interval\":16,\"event\":\"devicemotion\"},{\"x\":-6.6000000000000005,\"y\":-0.30000000000000004,\"z\":0.5,\"t\":6206,\"interval\":16,\"event\":\"devicemotion\"},{\"x\":-7.1000000000000005,\"y\":0,\"z\":0.5,\"t\":6223,\"interval\":16,\"event\":\"devicemotion\"},{\"x\":-7.300000000000001,\"y\":0.4,\"z\":0.9,\"t\":6239,\"interval\":16,\"event\":\"devicemotion\"},{\"x\":-5.7,\"y\":0.2,\"z\":1.3,\"t\":6257,\"interval\":16,\"event\":\"devicemotion\"},{\"x\":-3.8000000000000003,\"y\":0.2,\"z\":1,\"t\":6273,\"interval\":16,\"event\":\"devicemotion\"},{\"x\":-3.8000000000000003,\"y\":0.2,\"z\":1,\"t\":6289,\"interval\":16,\"event\":\"devicemotion\"},{\"x\":-2,\"y\":0.1,\"z\":0.7000000000000001,\"t\":6306,\"interval\":16,\"event\":\"devicemotion\"},{\"x\":-0.2,\"y\":0,\"z\":0.9,\"t\":6323,\"interval\":16,\"event\":\"devicemotion\"},{\"x\":1.3,\"y\":-0.1,\"z\":0.6000000000000001,\"t\":6340,\"interval\":16,\"event\":\"devicemotion\"},{\"x\":2.5,\"y\":-0.2,\"z\":0.5,\"t\":6356,\"interval\":16,\"event\":\"devicemotion\"},{\"x\":3.4000000000000004,\"y\":-0.1,\"z\":0.4,\"t\":6373,\"interval\":16,\"event\":\"devicemotion\"},{\"x\":3.4000000000000004,\"y\":-0.1,\"z\":0.4,\"t\":6390,\"interval\":16,\"event\":\"devicemotion\"},{\"x\":4.2,\"y\":-0.1,\"z\":0.1,\"t\":6406,\"interval\":16,\"event\":\"devicemotion\"},{\"x\":4.6000000000000005,\"y\":0,\"z\":-0.1,\"t\":6423,\"interval\":16,\"event\":\"devicemotion\"},{\"x\":4.5,\"y\":0,\"z\":-0.2,\"t\":6440,\"interval\":16,\"event\":\"devicemotion\"},{\"x\":4.3,\"y\":0.2,\"z\":-0.30000000000000004,\"t\":6456,\"interval\":16,\"event\":\"devicemotion\"},{\"x\":4.3,\"y\":0.30000000000000004,\"z\":-0.6000000000000001,\"t\":6473,\"interval\":16,\"event\":\"devicemotion\"},{\"x\":4.3,\"y\":0.30000000000000004,\"z\":-0.6000000000000001,\"t\":6489,\"interval\":16,\"event\":\"devicemotion\"},{\"x\":4.2,\"y\":0.2,\"z\":-0.6000000000000001,\"t\":6506,\"interval\":16,\"event\":\"devicemotion\"},{\"x\":4,\"y\":0.2,\"z\":-0.7000000000000001,\"t\":6523,\"interval\":16,\"event\":\"devicemotion\"},{\"x\":3.4000000000000004,\"y\":0.30000000000000004,\"z\":-0.8,\"t\":6540,\"interval\":16,\"event\":\"devicemotion\"},{\"x\":2.9000000000000004,\"y\":0.2,\"z\":-0.7000000000000001,\"t\":6556,\"interval\":16,\"event\":\"devicemotion\"},{\"x\":2.9000000000000004,\"y\":0.2,\"z\":-0.7000000000000001,\"t\":6573,\"interval\":16,\"event\":\"devicemotion\"},{\"x\":1.1,\"y\":0.2,\"z\":-0.1,\"t\":6589,\"interval\":16,\"event\":\"devicemotion\"},{\"x\":-0.1,\"y\":0.2,\"z\":0.1,\"t\":6606,\"interval\":16,\"event\":\"devicemotion\"},{\"x\":-1.9000000000000001,\"y\":0.2,\"z\":0.2,\"t\":6623,\"interval\":16,\"event\":\"devicemotion\"},{\"x\":-3.7,\"y\":0,\"z\":0,\"t\":6640,\"interval\":16,\"event\":\"devicemotion\"},{\"x\":-6.300000000000001,\"y\":0,\"z\":0.1,\"t\":6656,\"interval\":16,\"event\":\"devicemotion\"},{\"x\":-7.9,\"y\":0.30000000000000004,\"z\":0.1,\"t\":6673,\"interval\":16,\"event\":\"devicemotion\"},{\"x\":-7.9,\"y\":0.30000000000000004,\"z\":0.1,\"t\":6690,\"interval\":16,\"event\":\"devicemotion\"},{\"x\":-8.200000000000001,\"y\":0.6000000000000001,\"z\":0.4,\"t\":6706,\"interval\":16,\"event\":\"devicemotion\"},{\"x\":-7.5,\"y\":1,\"z\":0.5,\"t\":6723,\"interval\":16,\"event\":\"devicemotion\"},{\"x\":-6.4,\"y\":1,\"z\":0.5,\"t\":6739,\"interval\":16,\"event\":\"devicemotion\"},{\"x\":-4.9,\"y\":1,\"z\":0.8,\"t\":6756,\"interval\":16,\"event\":\"devicemotion\"},{\"x\":-4.9,\"y\":1,\"z\":0.8,\"t\":6773,\"interval\":16,\"event\":\"devicemotion\"},{\"x\":-2.9000000000000004,\"y\":0.9,\"z\":0.4,\"t\":6789,\"interval\":16,\"event\":\"devicemotion\"},{\"x\":-1,\"y\":0.7000000000000001,\"z\":0.1,\"t\":6806,\"interval\":16,\"event\":\"devicemotion\"},{\"x\":0.7000000000000001,\"y\":0.30000000000000004,\"z\":0.4,\"t\":6823,\"interval\":16,\"event\":\"devicemotion\"},{\"x\":2,\"y\":0.1,\"z\":0,\"t\":6840,\"interval\":16,\"event\":\"devicemotion\"},{\"x\":2,\"y\":0.1,\"z\":0,\"t\":6856,\"interval\":16,\"event\":\"devicemotion\"},{\"x\":3.1,\"y\":-0.1,\"z\":-0.4,\"t\":6873,\"interval\":16,\"event\":\"devicemotion\"},{\"x\":4.2,\"y\":-0.30000000000000004,\"z\":-0.30000000000000004,\"t\":6889,\"interval\":16,\"event\":\"devicemotion\"},{\"x\":4.6000000000000005,\"y\":-0.2,\"z\":-0.1,\"t\":6906,\"interval\":16,\"event\":\"devicemotion\"},{\"x\":4.9,\"y\":-0.1,\"z\":-0.30000000000000004,\"t\":6923,\"interval\":16,\"event\":\"devicemotion\"},{\"x\":4.800000000000001,\"y\":0,\"z\":-0.2,\"t\":6939,\"interval\":16,\"event\":\"devicemotion\"},{\"x\":5.2,\"y\":0.2,\"z\":-0.4,\"t\":6956,\"interval\":16,\"event\":\"devicemotion\"},{\"x\":5.2,\"y\":0.2,\"z\":-0.4,\"t\":6973,\"interval\":16,\"event\":\"devicemotion\"},{\"x\":5,\"y\":0.30000000000000004,\"z\":-0.5,\"t\":6990,\"interval\":16,\"event\":\"devicemotion\"},{\"x\":4.2,\"y\":0.5,\"z\":-0.5,\"t\":7006,\"interval\":16,\"event\":\"devicemotion\"},{\"x\":3.9000000000000004,\"y\":0.4,\"z\":-0.5,\"t\":7023,\"interval\":16,\"event\":\"devicemotion\"},{\"x\":2.8000000000000003,\"y\":0.4,\"z\":-0.6000000000000001,\"t\":7039,\"interval\":16,\"event\":\"devicemotion\"},{\"x\":1.5,\"y\":0.30000000000000004,\"z\":-0.8,\"t\":7056,\"interval\":16,\"event\":\"devicemotion\"},{\"x\":1.5,\"y\":0.30000000000000004,\"z\":-0.8,\"t\":7073,\"interval\":16,\"event\":\"devicemotion\"},{\"x\":0.1,\"y\":0.4,\"z\":-0.5,\"t\":7089,\"interval\":16,\"event\":\"devicemotion\"},{\"x\":-2.1,\"y\":0.30000000000000004,\"z\":-0.2,\"t\":7106,\"interval\":16,\"event\":\"devicemotion\"},{\"x\":-4.3,\"y\":0.4,\"z\":0.30000000000000004,\"t\":7123,\"interval\":16,\"event\":\"devicemotion\"},{\"x\":-6.2,\"y\":0.6000000000000001,\"z\":0.2,\"t\":7139,\"interval\":16,\"event\":\"devicemotion\"},{\"x\":-7.4,\"y\":0.7000000000000001,\"z\":0.4,\"t\":7156,\"interval\":16,\"event\":\"devicemotion\"},{\"x\":-7.4,\"y\":0.7000000000000001,\"z\":0.4,\"t\":7173,\"interval\":16,\"event\":\"devicemotion\"},{\"x\":-7.800000000000001,\"y\":1,\"z\":0.2,\"t\":7189,\"interval\":16,\"event\":\"devicemotion\"},{\"x\":-8,\"y\":1.4000000000000001,\"z\":0.1,\"t\":7206,\"interval\":16,\"event\":\"devicemotion\"},{\"x\":-6.9,\"y\":1.5,\"z\":0.4,\"t\":7223,\"interval\":16,\"event\":\"devicemotion\"},{\"x\":-5.5,\"y\":1.4000000000000001,\"z\":1.2000000000000002,\"t\":7239,\"interval\":16,\"event\":\"devicemotion\"},{\"x\":-3.4000000000000004,\"y\":1,\"z\":1,\"t\":7256,\"interval\":16,\"event\":\"devicemotion\"},{\"x\":-3.4000000000000004,\"y\":1,\"z\":1,\"t\":7273,\"interval\":16,\"event\":\"devicemotion\"},{\"x\":-1.6,\"y\":0.4,\"z\":0.6000000000000001,\"t\":7289,\"interval\":16,\"event\":\"devicemotion\"},{\"x\":0.5,\"y\":-0.4,\"z\":0.2,\"t\":7306,\"interval\":16,\"event\":\"devicemotion\"},{\"x\":2.5,\"y\":-0.9,\"z\":-0.2,\"t\":7323,\"interval\":16,\"event\":\"devicemotion\"},{\"x\":3.6,\"y\":-1.4000000000000001,\"z\":-0.30000000000000004,\"t\":7339,\"interval\":16,\"event\":\"devicemotion\"},{\"x\":3.6,\"y\":-1.4000000000000001,\"z\":-0.30000000000000004,\"t\":7356,\"interval\":16,\"event\":\"devicemotion\"},{\"x\":4.9,\"y\":-1.5,\"z\":-0.5,\"t\":7373,\"interval\":16,\"event\":\"devicemotion\"},{\"x\":5.2,\"y\":-1.3,\"z\":-0.30000000000000004,\"t\":7390,\"interval\":16,\"event\":\"devicemotion\"},{\"x\":5.800000000000001,\"y\":-1.1,\"z\":-0.4,\"t\":7406,\"interval\":16,\"event\":\"devicemotion\"},{\"x\":5.6000000000000005,\"y\":-0.8,\"z\":-0.6000000000000001,\"t\":7423,\"interval\":16,\"event\":\"devicemotion\"},{\"x\":5.5,\"y\":-0.5,\"z\":-0.7000000000000001,\"t\":7440,\"interval\":16,\"event\":\"devicemotion\"},{\"x\":5.5,\"y\":-0.5,\"z\":-0.7000000000000001,\"t\":7456,\"interval\":16,\"event\":\"devicemotion\"},{\"x\":5.5,\"y\":-0.2,\"z\":-0.6000000000000001,\"t\":7473,\"interval\":16,\"event\":\"devicemotion\"},{\"x\":4.800000000000001,\"y\":0.1,\"z\":-0.5,\"t\":7490,\"interval\":16,\"event\":\"devicemotion\"},{\"x\":4.6000000000000005,\"y\":0.1,\"z\":-0.5,\"t\":7506,\"interval\":16,\"event\":\"devicemotion\"},{\"x\":3.8000000000000003,\"y\":0.30000000000000004,\"z\":-0.6000000000000001,\"t\":7523,\"interval\":16,\"event\":\"devicemotion\"},{\"x\":2.9000000000000004,\"y\":0.4,\"z\":-0.2,\"t\":7540,\"interval\":16,\"event\":\"devicemotion\"},{\"x\":2.9000000000000004,\"y\":0.4,\"z\":-0.2,\"t\":7556,\"interval\":16,\"event\":\"devicemotion\"},{\"x\":1.3,\"y\":0.6000000000000001,\"z\":0,\"t\":7573,\"interval\":16,\"event\":\"devicemotion\"},{\"x\":-0.7000000000000001,\"y\":0.6000000000000001,\"z\":-0.30000000000000004,\"t\":7589,\"interval\":16,\"event\":\"devicemotion\"},{\"x\":-3.2,\"y\":0.5,\"z\":-0.4,\"t\":7606,\"interval\":16,\"event\":\"devicemotion\"},{\"x\":-3.2,\"y\":0.5,\"z\":-0.4,\"t\":7623,\"interval\":16,\"event\":\"devicemotion\"},{\"x\":-9.1,\"y\":1,\"z\":-0.5,\"t\":7639,\"interval\":16,\"event\":\"devicemotion\"},{\"x\":-9.1,\"y\":1,\"z\":-0.5,\"t\":7656,\"interval\":16,\"event\":\"devicemotion\"},{\"x\":-10.4,\"y\":1.5,\"z\":-0.2,\"t\":7673,\"interval\":16,\"event\":\"devicemotion\"},{\"x\":-10.200000000000001,\"y\":1.5,\"z\":0.1,\"t\":7689,\"interval\":16,\"event\":\"devicemotion\"},{\"x\":-9.3,\"y\":1.8,\"z\":0.4,\"t\":7706,\"interval\":16,\"event\":\"devicemotion\"},{\"x\":-7.300000000000001,\"y\":1.6,\"z\":0.7000000000000001,\"t\":7723,\"interval\":16,\"event\":\"devicemotion\"},{\"x\":-7.300000000000001,\"y\":1.6,\"z\":0.7000000000000001,\"t\":7739,\"interval\":16,\"event\":\"devicemotion\"},{\"x\":-4.5,\"y\":1.3,\"z\":0.5,\"t\":7756,\"interval\":16,\"event\":\"devicemotion\"},{\"x\":-1.5,\"y\":0.6000000000000001,\"z\":0.7000000000000001,\"t\":7773,\"interval\":16,\"event\":\"devicemotion\"},{\"x\":1.1,\"y\":-0.2,\"z\":0.30000000000000004,\"t\":7789,\"interval\":16,\"event\":\"devicemotion\"},{\"x\":2.8000000000000003,\"y\":-0.8,\"z\":-0.1,\"t\":7806,\"interval\":16,\"event\":\"devicemotion\"},{\"x\":4,\"y\":-1.1,\"z\":-0.2,\"t\":7823,\"interval\":16,\"event\":\"devicemotion\"},{\"x\":4,\"y\":-1.1,\"z\":-0.2,\"t\":7839,\"interval\":16,\"event\":\"devicemotion\"},{\"x\":4.6000000000000005,\"y\":-1.1,\"z\":-0.4,\"t\":7856,\"interval\":16,\"event\":\"devicemotion\"},{\"x\":5.300000000000001,\"y\":-0.9,\"z\":-0.1,\"t\":7873,\"interval\":16,\"event\":\"devicemotion\"},{\"x\":5.1000000000000005,\"y\":-0.6000000000000001,\"z\":0,\"t\":7890,\"interval\":16,\"event\":\"devicemotion\"},{\"x\":5.300000000000001,\"y\":-0.6000000000000001,\"z\":-0.2,\"t\":7906,\"interval\":16,\"event\":\"devicemotion\"},{\"x\":5.300000000000001,\"y\":-0.6000000000000001,\"z\":-0.2,\"t\":7923,\"interval\":16,\"event\":\"devicemotion\"},{\"x\":4.9,\"y\":-0.6000000000000001,\"z\":0,\"t\":7939,\"interval\":16,\"event\":\"devicemotion\"},{\"x\":5.1000000000000005,\"y\":-0.5,\"z\":0,\"t\":7956,\"interval\":16,\"event\":\"devicemotion\"},{\"x\":4.7,\"y\":-0.5,\"z\":0,\"t\":7973,\"interval\":16,\"event\":\"devicemotion\"},{\"x\":4.3,\"y\":-0.6000000000000001,\"z\":0,\"t\":7990,\"interval\":16,\"event\":\"devicemotion\"},{\"x\":3.9000000000000004,\"y\":-0.6000000000000001,\"z\":0,\"t\":8006,\"interval\":16,\"event\":\"devicemotion\"},{\"x\":3.2,\"y\":-0.5,\"z\":0.1,\"t\":8023,\"interval\":16,\"event\":\"devicemotion\"},{\"x\":3.2,\"y\":-0.5,\"z\":0.1,\"t\":8039,\"interval\":16,\"event\":\"devicemotion\"},{\"x\":2.1,\"y\":-0.2,\"z\":0.1,\"t\":8056,\"interval\":16,\"event\":\"devicemotion\"},{\"x\":0.30000000000000004,\"y\":-0.2,\"z\":0,\"t\":8073,\"interval\":16,\"event\":\"devicemotion\"},{\"x\":-2.1,\"y\":-0.1,\"z\":-1,\"t\":8090,\"interval\":16,\"event\":\"devicemotion\"},{\"x\":-2.1,\"y\":-0.1,\"z\":-1,\"t\":8106,\"interval\":16,\"event\":\"devicemotion\"},{\"x\":-5.4,\"y\":0.7000000000000001,\"z\":-0.9,\"t\":8123,\"interval\":16,\"event\":\"devicemotion\"},{\"x\":-5.4,\"y\":0.7000000000000001,\"z\":-0.9,\"t\":8139,\"interval\":16,\"event\":\"devicemotion\"},{\"x\":-7.5,\"y\":1.3,\"z\":-0.9,\"t\":8156,\"interval\":16,\"event\":\"devicemotion\"},{\"x\":-8.700000000000001,\"y\":1.7000000000000002,\"z\":-0.8,\"t\":8173,\"interval\":16,\"event\":\"devicemotion\"},{\"x\":-8.8,\"y\":1.9000000000000001,\"z\":-0.30000000000000004,\"t\":8189,\"interval\":16,\"event\":\"devicemotion\"},{\"x\":-7.300000000000001,\"y\":2,\"z\":0,\"t\":8206,\"interval\":16,\"event\":\"devicemotion\"},{\"x\":-7.300000000000001,\"y\":2,\"z\":0,\"t\":8223,\"interval\":16,\"event\":\"devicemotion\"},{\"x\":-5,\"y\":1.8,\"z\":0.30000000000000004,\"t\":8239,\"interval\":16,\"event\":\"devicemotion\"},{\"x\":-3.1,\"y\":1.3,\"z\":0,\"t\":8257,\"interval\":16,\"event\":\"devicemotion\"},{\"x\":-0.7000000000000001,\"y\":0.8,\"z\":-0.1,\"t\":8273,\"interval\":16,\"event\":\"devicemotion\"},{\"x\":0.7000000000000001,\"y\":0.30000000000000004,\"z\":0.2,\"t\":8289,\"interval\":16,\"event\":\"devicemotion\"},{\"x\":0.7000000000000001,\"y\":0.30000000000000004,\"z\":0.2,\"t\":8306,\"interval\":16,\"event\":\"devicemotion\"},{\"x\":3,\"y\":-0.1,\"z\":0,\"t\":8323,\"interval\":16,\"event\":\"devicemotion\"},{\"x\":3,\"y\":-0.1,\"z\":0,\"t\":8339,\"interval\":16,\"event\":\"devicemotion\"},{\"x\":4,\"y\":-0.5,\"z\":0.1,\"t\":8356,\"interval\":16,\"event\":\"devicemotion\"},{\"x\":4.2,\"y\":-0.5,\"z\":0.2,\"t\":8373,\"interval\":16,\"event\":\"devicemotion\"},{\"x\":4.800000000000001,\"y\":-0.7000000000000001,\"z\":0.5,\"t\":8389,\"interval\":16,\"event\":\"devicemotion\"},{\"x\":5,\"y\":-0.8,\"z\":0.4,\"t\":8406,\"interval\":16,\"event\":\"devicemotion\"},{\"x\":5,\"y\":-0.8,\"z\":0.4,\"t\":8423,\"interval\":16,\"event\":\"devicemotion\"},{\"x\":5.2,\"y\":-0.8,\"z\":0.4,\"t\":8439,\"interval\":16,\"event\":\"devicemotion\"},{\"x\":4.800000000000001,\"y\":-0.7000000000000001,\"z\":0.30000000000000004,\"t\":8456,\"interval\":16,\"event\":\"devicemotion\"},{\"x\":4.6000000000000005,\"y\":-0.5,\"z\":0.30000000000000004,\"t\":8473,\"interval\":16,\"event\":\"devicemotion\"},{\"x\":4.6000000000000005,\"y\":-0.5,\"z\":0.4,\"t\":8489,\"interval\":16,\"event\":\"devicemotion\"},{\"x\":3.5,\"y\":-0.30000000000000004,\"z\":0.6000000000000001,\"t\":8506,\"interval\":16,\"event\":\"devicemotion\"},{\"x\":3.5,\"y\":-0.30000000000000004,\"z\":0.6000000000000001,\"t\":8522,\"interval\":16,\"event\":\"devicemotion\"},{\"x\":2.5,\"y\":0.2,\"z\":0.6000000000000001,\"t\":8539,\"interval\":16,\"event\":\"devicemotion\"},{\"x\":0.6000000000000001,\"y\":0.7000000000000001,\"z\":0.30000000000000004,\"t\":8556,\"interval\":16,\"event\":\"devicemotion\"},{\"x\":-1.9000000000000001,\"y\":0.9,\"z\":-0.30000000000000004,\"t\":8572,\"interval\":16,\"event\":\"devicemotion\"},{\"x\":-4.5,\"y\":0.30000000000000004,\"z\":-0.2,\"t\":8589,\"interval\":16,\"event\":\"devicemotion\"},{\"x\":-4.5,\"y\":0.30000000000000004,\"z\":-0.2,\"t\":8606,\"interval\":16,\"event\":\"devicemotion\"},{\"x\":-6.6000000000000005,\"y\":0.4,\"z\":-0.4,\"t\":8623,\"interval\":16,\"event\":\"devicemotion\"},{\"x\":-9.200000000000001,\"y\":1.3,\"z\":-0.7000000000000001,\"t\":8639,\"interval\":16,\"event\":\"devicemotion\"},{\"x\":-10.100000000000001,\"y\":1.6,\"z\":-1.4000000000000001,\"t\":8656,\"interval\":16,\"event\":\"devicemotion\"},{\"x\":-10.5,\"y\":1.8,\"z\":-1.1,\"t\":8673,\"interval\":16,\"event\":\"devicemotion\"},{\"x\":-9.3,\"y\":1.7000000000000002,\"z\":-0.4,\"t\":8689,\"interval\":16,\"event\":\"devicemotion\"},{\"x\":-9.3,\"y\":1.7000000000000002,\"z\":-0.4,\"t\":8706,\"interval\":16,\"event\":\"devicemotion\"},{\"x\":-7.2,\"y\":1.5,\"z\":0.1,\"t\":8723,\"interval\":16,\"event\":\"devicemotion\"},{\"x\":-4.4,\"y\":1,\"z\":0.5,\"t\":8739,\"interval\":16,\"event\":\"devicemotion\"},{\"x\":-1.3,\"y\":0.4,\"z\":0.30000000000000004,\"t\":8756,\"interval\":16,\"event\":\"devicemotion\"},{\"x\":1.3,\"y\":-0.30000000000000004,\"z\":0.2,\"t\":8773,\"interval\":16,\"event\":\"devicemotion\"},{\"x\":3.6,\"y\":-0.9,\"z\":0,\"t\":8790,\"interval\":16,\"event\":\"devicemotion\"},{\"x\":5,\"y\":-1.3,\"z\":0,\"t\":8807,\"interval\":16,\"event\":\"devicemotion\"},{\"x\":5,\"y\":-1.3,\"z\":0,\"t\":8823,\"interval\":16,\"event\":\"devicemotion\"},{\"x\":5.7,\"y\":-1.4000000000000001,\"z\":0.30000000000000004,\"t\":8839,\"interval\":16,\"event\":\"devicemotion\"},{\"x\":5.7,\"y\":-1.4000000000000001,\"z\":0.4,\"t\":8857,\"interval\":16,\"event\":\"devicemotion\"},{\"x\":5.9,\"y\":-1.5,\"z\":0.30000000000000004,\"t\":8873,\"interval\":16,\"event\":\"devicemotion\"},{\"x\":5.6000000000000005,\"y\":-1.5,\"z\":0.1,\"t\":8890,\"interval\":16,\"event\":\"devicemotion\"},{\"x\":5.6000000000000005,\"y\":-1.5,\"z\":0.1,\"t\":8907,\"interval\":16,\"event\":\"devicemotion\"},{\"x\":5.800000000000001,\"y\":-1.4000000000000001,\"z\":-0.1,\"t\":8923,\"interval\":16,\"event\":\"devicemotion\"},{\"x\":6.4,\"y\":-1.3,\"z\":-0.1,\"t\":8939,\"interval\":16,\"event\":\"devicemotion\"},{\"x\":6,\"y\":-1.3,\"z\":-0.2,\"t\":8956,\"interval\":16,\"event\":\"devicemotion\"},{\"x\":5.4,\"y\":-1.1,\"z\":-0.4,\"t\":8973,\"interval\":16,\"event\":\"devicemotion\"},{\"x\":4.3,\"y\":-1,\"z\":-0.30000000000000004,\"t\":8989,\"interval\":16,\"event\":\"devicemotion\"},{\"x\":4.3,\"y\":-1,\"z\":-0.30000000000000004,\"t\":9006,\"interval\":16,\"event\":\"devicemotion\"},{\"x\":3.9000000000000004,\"y\":-0.9,\"z\":-0.1,\"t\":9023,\"interval\":16,\"event\":\"devicemotion\"},{\"x\":3.5,\"y\":-0.7000000000000001,\"z\":-0.30000000000000004,\"t\":9039,\"interval\":16,\"event\":\"devicemotion\"},{\"x\":1.7000000000000002,\"y\":-0.4,\"z\":-0.2,\"t\":9056,\"interval\":16,\"event\":\"devicemotion\"},{\"x\":-0.1,\"y\":0.1,\"z\":0.2,\"t\":9073,\"interval\":16,\"event\":\"devicemotion\"},{\"x\":-2.4000000000000004,\"y\":0.5,\"z\":0.4,\"t\":9090,\"interval\":16,\"event\":\"devicemotion\"},{\"x\":-2.4000000000000004,\"y\":0.5,\"z\":0.4,\"t\":9106,\"interval\":16,\"event\":\"devicemotion\"},{\"x\":-5.5,\"y\":-0.1,\"z\":0.2,\"t\":9123,\"interval\":16,\"event\":\"devicemotion\"},{\"x\":-7.9,\"y\":0.5,\"z\":-0.5,\"t\":9139,\"interval\":16,\"event\":\"devicemotion\"},{\"x\":-10.100000000000001,\"y\":1.5,\"z\":-0.6000000000000001,\"t\":9156,\"interval\":16,\"event\":\"devicemotion\"},{\"x\":-10.9,\"y\":1.9000000000000001,\"z\":-0.4,\"t\":9173,\"interval\":16,\"event\":\"devicemotion\"},{\"x\":-10.9,\"y\":1.9000000000000001,\"z\":-0.4,\"t\":9189,\"interval\":16,\"event\":\"devicemotion\"},{\"x\":-10.5,\"y\":2.3000000000000003,\"z\":0.1,\"t\":9206,\"interval\":16,\"event\":\"devicemotion\"},{\"x\":-8.700000000000001,\"y\":2.2,\"z\":0.5,\"t\":9223,\"interval\":16,\"event\":\"devicemotion\"},{\"x\":-6.2,\"y\":1.8,\"z\":0.8,\"t\":9239,\"interval\":16,\"event\":\"devicemotion\"},{\"x\":-3.3000000000000003,\"y\":1,\"z\":0.8,\"t\":9256,\"interval\":16,\"event\":\"devicemotion\"},{\"x\":1.9000000000000001,\"y\":-0.7000000000000001,\"z\":0.1,\"t\":9273,\"interval\":16,\"event\":\"devicemotion\"},{\"x\":1.9000000000000001,\"y\":-0.7000000000000001,\"z\":0.1,\"t\":9289,\"interval\":16,\"event\":\"devicemotion\"},{\"x\":3.4000000000000004,\"y\":-1.3,\"z\":-0.1,\"t\":9306,\"interval\":16,\"event\":\"devicemotion\"},{\"x\":4.3,\"y\":-1.7000000000000002,\"z\":0.30000000000000004,\"t\":9323,\"interval\":16,\"event\":\"devicemotion\"},{\"x\":5.2,\"y\":-1.6,\"z\":0.5,\"t\":9339,\"interval\":16,\"event\":\"devicemotion\"},{\"x\":5.2,\"y\":-1.6,\"z\":0.5,\"t\":9356,\"interval\":16,\"event\":\"devicemotion\"},{\"x\":5.5,\"y\":-1.1,\"z\":0.5,\"t\":9373,\"interval\":16,\"event\":\"devicemotion\"},{\"x\":5.5,\"y\":-1.1,\"z\":0.5,\"t\":9391,\"interval\":16,\"event\":\"devicemotion\"},{\"x\":5.7,\"y\":-0.9,\"z\":0.4,\"t\":9406,\"interval\":16,\"event\":\"devicemotion\"},{\"x\":5.9,\"y\":-0.7000000000000001,\"z\":0.4,\"t\":9423,\"interval\":16,\"event\":\"devicemotion\"},{\"x\":5.800000000000001,\"y\":-0.7000000000000001,\"z\":0.30000000000000004,\"t\":9439,\"interval\":16,\"event\":\"devicemotion\"},{\"x\":5.6000000000000005,\"y\":-0.7000000000000001,\"z\":0.2,\"t\":9456,\"interval\":16,\"event\":\"devicemotion\"},{\"x\":5,\"y\":-0.8,\"z\":-0.1,\"t\":9473,\"interval\":16,\"event\":\"devicemotion\"},{\"x\":5,\"y\":-0.8,\"z\":-0.1,\"t\":9489,\"interval\":16,\"event\":\"devicemotion\"},{\"x\":4.4,\"y\":-0.7000000000000001,\"z\":-0.1,\"t\":9506,\"interval\":16,\"event\":\"devicemotion\"},{\"x\":3.5,\"y\":-0.5,\"z\":-0.30000000000000004,\"t\":9523,\"interval\":16,\"event\":\"devicemotion\"},{\"x\":2.2,\"y\":0.2,\"z\":-0.1,\"t\":9539,\"interval\":16,\"event\":\"devicemotion\"},{\"x\":0.5,\"y\":0.9,\"z\":-0.2,\"t\":9556,\"interval\":16,\"event\":\"devicemotion\"},{\"x\":-1.3,\"y\":0.8,\"z\":-0.30000000000000004,\"t\":9573,\"interval\":16,\"event\":\"devicemotion\"},{\"x\":-1.3,\"y\":0.8,\"z\":-0.30000000000000004,\"t\":9589,\"interval\":16,\"event\":\"devicemotion\"},{\"x\":-4.2,\"y\":1,\"z\":0.30000000000000004,\"t\":9606,\"interval\":16,\"event\":\"devicemotion\"},{\"x\":-7.4,\"y\":1.1,\"z\":0.6000000000000001,\"t\":9623,\"interval\":16,\"event\":\"devicemotion\"},{\"x\":-9.200000000000001,\"y\":1.2000000000000002,\"z\":0,\"t\":9639,\"interval\":16,\"event\":\"devicemotion\"},{\"x\":-10.100000000000001,\"y\":1.1,\"z\":-0.1,\"t\":9656,\"interval\":16,\"event\":\"devicemotion\"},{\"x\":-10.100000000000001,\"y\":1.1,\"z\":-0.1,\"t\":9673,\"interval\":16,\"event\":\"devicemotion\"},{\"x\":-10.100000000000001,\"y\":1.5,\"z\":-0.30000000000000004,\"t\":9690,\"interval\":16,\"event\":\"devicemotion\"},{\"x\":-9.200000000000001,\"y\":1.3,\"z\":0.4,\"t\":9706,\"interval\":16,\"event\":\"devicemotion\"},{\"x\":-7.1000000000000005,\"y\":1,\"z\":1.2000000000000002,\"t\":9723,\"interval\":16,\"event\":\"devicemotion\"},{\"x\":-4.3,\"y\":0.4,\"z\":1.4000000000000001,\"t\":9740,\"interval\":16,\"event\":\"devicemotion\"},{\"x\":-1.6,\"y\":-0.1,\"z\":1,\"t\":9756,\"interval\":16,\"event\":\"devicemotion\"},{\"x\":-1.6,\"y\":-0.1,\"z\":1,\"t\":9773,\"interval\":16,\"event\":\"devicemotion\"},{\"x\":1,\"y\":-0.7000000000000001,\"z\":0.8,\"t\":9789,\"interval\":16,\"event\":\"devicemotion\"},{\"x\":3.1,\"y\":-1.2000000000000002,\"z\":0.2,\"t\":9806,\"interval\":16,\"event\":\"devicemotion\"},{\"x\":4.5,\"y\":-1.3,\"z\":-0.5,\"t\":9823,\"interval\":16,\"event\":\"devicemotion\"},{\"x\":5.300000000000001,\"y\":-1.2000000000000002,\"z\":-0.2,\"t\":9839,\"interval\":16,\"event\":\"devicemotion\"},{\"x\":5.9,\"y\":-0.9,\"z\":0,\"t\":9856,\"interval\":16,\"event\":\"devicemotion\"},{\"x\":5.9,\"y\":-0.9,\"z\":0,\"t\":9872,\"interval\":16,\"event\":\"devicemotion\"},{\"x\":5.5,\"y\":-0.7000000000000001,\"z\":0.1,\"t\":9889,\"interval\":16,\"event\":\"devicemotion\"},{\"x\":5.5,\"y\":-0.6000000000000001,\"z\":-0.2,\"t\":9906,\"interval\":16,\"event\":\"devicemotion\"},{\"x\":5.6000000000000005,\"y\":-0.2,\"z\":-0.2,\"t\":9922,\"interval\":16,\"event\":\"devicemotion\"},{\"x\":5.800000000000001,\"y\":0,\"z\":-0.30000000000000004,\"t\":9939,\"interval\":16,\"event\":\"devicemotion\"},{\"x\":5.2,\"y\":0,\"z\":-0.2,\"t\":9956,\"interval\":16,\"event\":\"devicemotion\"},{\"x\":5.2,\"y\":0,\"z\":-0.2,\"t\":9973,\"interval\":16,\"event\":\"devicemotion\"},{\"x\":5,\"y\":0.2,\"z\":-0.2,\"t\":9989,\"interval\":16,\"event\":\"devicemotion\"},{\"x\":4.800000000000001,\"y\":-0.1,\"z\":-0.2,\"t\":10006,\"interval\":16,\"event\":\"devicemotion\"},{\"x\":3.8000000000000003,\"y\":-0.2,\"z\":-0.4,\"t\":10022,\"interval\":16,\"event\":\"devicemotion\"},{\"x\":2.7,\"y\":-0.4,\"z\":-0.6000000000000001,\"t\":10039,\"interval\":16,\"event\":\"devicemotion\"},{\"x\":1.8,\"y\":-0.30000000000000004,\"z\":-0.6000000000000001,\"t\":10056,\"interval\":16,\"event\":\"devicemotion\"},{\"x\":1.8,\"y\":-0.30000000000000004,\"z\":-0.6000000000000001,\"t\":10073,\"interval\":16,\"event\":\"devicemotion\"},{\"x\":-1.2000000000000002,\"y\":0,\"z\":-0.6000000000000001,\"t\":10089,\"interval\":16,\"event\":\"devicemotion\"},{\"x\":-4.4,\"y\":0.30000000000000004,\"z\":-0.4,\"t\":10106,\"interval\":16,\"event\":\"devicemotion\"},{\"x\":-7.6000000000000005,\"y\":0.7000000000000001,\"z\":0.4,\"t\":10123,\"interval\":16,\"event\":\"devicemotion\"},{\"x\":-9.700000000000001,\"y\":1.6,\"z\":1,\"t\":10139,\"interval\":16,\"event\":\"devicemotion\"},{\"x\":-9.700000000000001,\"y\":1.6,\"z\":1,\"t\":10156,\"interval\":16,\"event\":\"devicemotion\"},{\"x\":-10.600000000000001,\"y\":2.1,\"z\":1.5,\"t\":10173,\"interval\":16,\"event\":\"devicemotion\"},{\"x\":-9.8,\"y\":2.4000000000000004,\"z\":1.8,\"t\":10189,\"interval\":16,\"event\":\"devicemotion\"},{\"x\":-7.6000000000000005,\"y\":2,\"z\":1.9000000000000001,\"t\":10206,\"interval\":16,\"event\":\"devicemotion\"},{\"x\":-5.4,\"y\":1.6,\"z\":1.6,\"t\":10222,\"interval\":16,\"event\":\"devicemotion\"},{\"x\":-2.4000000000000004,\"y\":0.9,\"z\":1,\"t\":10239,\"interval\":16,\"event\":\"devicemotion\"},{\"x\":-2.4000000000000004,\"y\":0.9,\"z\":1,\"t\":10256,\"interval\":16,\"event\":\"devicemotion\"},{\"x\":0.4,\"y\":0,\"z\":0.6000000000000001,\"t\":10273,\"interval\":16,\"event\":\"devicemotion\"},{\"x\":3,\"y\":-0.5,\"z\":-0.1,\"t\":10290,\"interval\":16,\"event\":\"devicemotion\"},{\"x\":4.4,\"y\":-0.9,\"z\":-0.8,\"t\":10307,\"interval\":16,\"event\":\"devicemotion\"},{\"x\":5.5,\"y\":-1.3,\"z\":-0.9,\"t\":10322,\"interval\":16,\"event\":\"devicemotion\"},{\"x\":6.300000000000001,\"y\":-1.4000000000000001,\"z\":-1,\"t\":10339,\"interval\":16,\"event\":\"devicemotion\"},{\"x\":6.300000000000001,\"y\":-1.4000000000000001,\"z\":-1,\"t\":10356,\"interval\":16,\"event\":\"devicemotion\"},{\"x\":6.800000000000001,\"y\":-1.4000000000000001,\"z\":-1.1,\"t\":10373,\"interval\":16,\"event\":\"devicemotion\"},{\"x\":7.4,\"y\":-1.3,\"z\":-1.5,\"t\":10389,\"interval\":16,\"event\":\"devicemotion\"},{\"x\":7.300000000000001,\"y\":-1.1,\"z\":-1.2000000000000002,\"t\":10406,\"interval\":16,\"event\":\"devicemotion\"},{\"x\":7.4,\"y\":-1,\"z\":-0.8,\"t\":10423,\"interval\":16,\"event\":\"devicemotion\"},{\"x\":7.4,\"y\":-1,\"z\":-0.8,\"t\":10439,\"interval\":16,\"event\":\"devicemotion\"},{\"x\":6.800000000000001,\"y\":-0.8,\"z\":-1,\"t\":10456,\"interval\":16,\"event\":\"devicemotion\"},{\"x\":5.6000000000000005,\"y\":-0.6000000000000001,\"z\":-1.4000000000000001,\"t\":10473,\"interval\":16,\"event\":\"devicemotion\"},{\"x\":4.9,\"y\":-0.5,\"z\":-1.1,\"t\":10489,\"interval\":16,\"event\":\"devicemotion\"},{\"x\":3.7,\"y\":-0.4,\"z\":-0.8,\"t\":10506,\"interval\":16,\"event\":\"devicemotion\"},{\"x\":1.6,\"y\":-0.1,\"z\":-1,\"t\":10523,\"interval\":16,\"event\":\"devicemotion\"},{\"x\":1.6,\"y\":-0.1,\"z\":-1,\"t\":10539,\"interval\":16,\"event\":\"devicemotion\"},{\"x\":-0.6000000000000001,\"y\":0,\"z\":-1.1,\"t\":10556,\"interval\":16,\"event\":\"devicemotion\"},{\"x\":-3.2,\"y\":0.5,\"z\":-1,\"t\":10573,\"interval\":16,\"event\":\"devicemotion\"},{\"x\":-6.5,\"y\":1.1,\"z\":-1.2000000000000002,\"t\":10589,\"interval\":16,\"event\":\"devicemotion\"},{\"x\":-8.3,\"y\":1.8,\"z\":-1.2000000000000002,\"t\":10606,\"interval\":16,\"event\":\"devicemotion\"},{\"x\":-9.700000000000001,\"y\":2.1,\"z\":-0.4,\"t\":10623,\"interval\":16,\"event\":\"devicemotion\"},{\"x\":-9.700000000000001,\"y\":2.1,\"z\":-0.4,\"t\":10639,\"interval\":16,\"event\":\"devicemotion\"},{\"x\":-9.700000000000001,\"y\":2.5,\"z\":-0.4,\"t\":10656,\"interval\":16,\"event\":\"devicemotion\"},{\"x\":-9.4,\"y\":2.6,\"z\":-0.8,\"t\":10673,\"interval\":16,\"event\":\"devicemotion\"},{\"x\":-8.6,\"y\":2.4000000000000004,\"z\":-0.30000000000000004,\"t\":10690,\"interval\":16,\"event\":\"devicemotion\"},{\"x\":-6.7,\"y\":1.7000000000000002,\"z\":0.4,\"t\":10706,\"interval\":16,\"event\":\"devicemotion\"},{\"x\":-3.9000000000000004,\"y\":1,\"z\":0.4,\"t\":10722,\"interval\":16,\"event\":\"devicemotion\"},{\"x\":-3.9000000000000004,\"y\":1,\"z\":0.4,\"t\":10740,\"interval\":16,\"event\":\"devicemotion\"},{\"x\":-1,\"y\":0.30000000000000004,\"z\":-0.4,\"t\":10756,\"interval\":16,\"event\":\"devicemotion\"},{\"x\":2.9000000000000004,\"y\":-1,\"z\":-0.30000000000000004,\"t\":10773,\"interval\":16,\"event\":\"devicemotion\"},{\"x\":2.9000000000000004,\"y\":-1,\"z\":-0.30000000000000004,\"t\":10789,\"interval\":16,\"event\":\"devicemotion\"},{\"x\":4.5,\"y\":-1.4000000000000001,\"z\":-0.2,\"t\":10806,\"interval\":16,\"event\":\"devicemotion\"},{\"x\":4.5,\"y\":-1.4000000000000001,\"z\":-0.2,\"t\":10822,\"interval\":16,\"event\":\"devicemotion\"},{\"x\":5.2,\"y\":-1.3,\"z\":-0.1,\"t\":10839,\"interval\":16,\"event\":\"devicemotion\"},{\"x\":5.2,\"y\":-1.3,\"z\":-0.1,\"t\":10856,\"interval\":16,\"event\":\"devicemotion\"},{\"x\":6,\"y\":-1.2000000000000002,\"z\":-0.4,\"t\":10873,\"interval\":16,\"event\":\"devicemotion\"},{\"x\":6.7,\"y\":-1.3,\"z\":-0.1,\"t\":10889,\"interval\":16,\"event\":\"devicemotion\"},{\"x\":6.7,\"y\":-1.5,\"z\":0.30000000000000004,\"t\":10909,\"interval\":16,\"event\":\"devicemotion\"},{\"x\":6.7,\"y\":-1.5,\"z\":0.30000000000000004,\"t\":10923,\"interval\":16,\"event\":\"devicemotion\"},{\"x\":6.1000000000000005,\"y\":-1.4000000000000001,\"z\":0.1,\"t\":10939,\"interval\":16,\"event\":\"devicemotion\"},{\"x\":5.5,\"y\":-1.2000000000000002,\"z\":-0.1,\"t\":10956,\"interval\":16,\"event\":\"devicemotion\"},{\"x\":5.2,\"y\":-1.2000000000000002,\"z\":-0.1,\"t\":10973,\"interval\":16,\"event\":\"devicemotion\"},{\"x\":4.5,\"y\":-1.1,\"z\":0,\"t\":10990,\"interval\":16,\"event\":\"devicemotion\"},{\"x\":3.2,\"y\":-0.8,\"z\":-0.30000000000000004,\"t\":11006,\"interval\":16,\"event\":\"devicemotion\"},{\"x\":3.2,\"y\":-0.8,\"z\":-0.30000000000000004,\"t\":11023,\"interval\":16,\"event\":\"devicemotion\"},{\"x\":1.3,\"y\":-0.2,\"z\":-1,\"t\":11039,\"interval\":16,\"event\":\"devicemotion\"},{\"x\":-0.6000000000000001,\"y\":0.4,\"z\":-1,\"t\":11056,\"interval\":16,\"event\":\"devicemotion\"},{\"x\":-3.2,\"y\":0.7000000000000001,\"z\":-0.4,\"t\":11073,\"interval\":16,\"event\":\"devicemotion\"},{\"x\":-3.2,\"y\":0.7000000000000001,\"z\":-0.4,\"t\":11090,\"interval\":16,\"event\":\"devicemotion\"},{\"x\":-8.700000000000001,\"y\":3.1,\"z\":-0.1,\"t\":11106,\"interval\":16,\"event\":\"devicemotion\"},{\"x\":-8.700000000000001,\"y\":3.1,\"z\":-0.1,\"t\":11123,\"interval\":16,\"event\":\"devicemotion\"},{\"x\":-9,\"y\":3.4000000000000004,\"z\":-0.6000000000000001,\"t\":11139,\"interval\":16,\"event\":\"devicemotion\"},{\"x\":-8.3,\"y\":3.3000000000000003,\"z\":-1,\"t\":11156,\"interval\":16,\"event\":\"devicemotion\"},{\"x\":-7.1000000000000005,\"y\":2.7,\"z\":-0.7000000000000001,\"t\":11173,\"interval\":16,\"event\":\"devicemotion\"},{\"x\":-5.4,\"y\":2.2,\"z\":-0.6000000000000001,\"t\":11189,\"interval\":16,\"event\":\"devicemotion\"},{\"x\":-3.2,\"y\":1.3,\"z\":-0.2,\"t\":11206,\"interval\":16,\"event\":\"devicemotion\"},{\"x\":-3.2,\"y\":1.3,\"z\":-0.2,\"t\":11223,\"interval\":16,\"event\":\"devicemotion\"},{\"x\":-0.7000000000000001,\"y\":0.30000000000000004,\"z\":-0.1,\"t\":11239,\"interval\":16,\"event\":\"devicemotion\"},{\"x\":1.5,\"y\":-0.4,\"z\":-0.1,\"t\":11256,\"interval\":16,\"event\":\"devicemotion\"},{\"x\":3.1,\"y\":-0.9,\"z\":-0.5,\"t\":11273,\"interval\":16,\"event\":\"devicemotion\"},{\"x\":4,\"y\":-1.5,\"z\":-0.30000000000000004,\"t\":11289,\"interval\":16,\"event\":\"devicemotion\"},{\"x\":5.2,\"y\":-2,\"z\":0.1,\"t\":11306,\"interval\":16,\"event\":\"devicemotion\"},{\"x\":5.2,\"y\":-2,\"z\":0.1,\"t\":11322,\"interval\":16,\"event\":\"devicemotion\"},{\"x\":5.6000000000000005,\"y\":-2.1,\"z\":0,\"t\":11340,\"interval\":16,\"event\":\"devicemotion\"},{\"x\":6.1000000000000005,\"y\":-2,\"z\":0,\"t\":11356,\"interval\":16,\"event\":\"devicemotion\"},{\"x\":5.6000000000000005,\"y\":-1.8,\"z\":0.1,\"t\":11373,\"interval\":16,\"event\":\"devicemotion\"},{\"x\":5.6000000000000005,\"y\":-1.7000000000000002,\"z\":0.2,\"t\":11390,\"interval\":16,\"event\":\"devicemotion\"},{\"x\":5,\"y\":-1.5,\"z\":0.30000000000000004,\"t\":11406,\"interval\":16,\"event\":\"devicemotion\"},{\"x\":5,\"y\":-1.5,\"z\":0.30000000000000004,\"t\":11423,\"interval\":16,\"event\":\"devicemotion\"},{\"x\":4.7,\"y\":-1.2000000000000002,\"z\":0.6000000000000001,\"t\"