[
 {
   "device_id": "e5a525311893700f813ec0e3ab6ab3c371236314419b998efba9d12a8df8939a",
   "trial_type": "initialize-microphone",
   "trial_index": 0,
   "time_elapsed": 4312,
   "internal_node_id": "0.0-0.0",
   "rt": "",
   "audiostimulus": "",
   "stimulus": "",
   "response": "",
   "estimated_stimulus_onset": null,
   "accelerometer_data": ""
 },
 {
   "device_id": "",
   "trial_type": "html-audio-response",
   "trial_index": 1,
   "time_elapsed": 40742,
   "internal_node_id": "0.0-1.0",
   "rt": null,
   "audiostimulus": "../standaloneApp/binary_ternary.mp3",
   "stimulus": "<p style=\"font-size:48px;\">Sing</p>",
   "response": "GkXfo59ChoEBQveBAULygQRC84EIQoKEd2VibUKHgQRChYECGFOAZwH/////////FUmpZpkq17GDD0JATYCGQ2hyb21lV0GGQ2hyb21lFlSua7+uvdeBAXPFh2J3xein/X+DgQKGhkFfT1BVU2Oik09wdXNIZWFkAQEAAIC7AAAAAADhjbWERzuAAJ+BAWJkgSAfQ7Z1Af/////////ngQCjQS+BAACA+4MCj//+f/vFVsZRalbAxrMUiwgoHHxwESa1PMIc0idl3rMZpccRrcT/d7C0s66zEkAuB/FANtRPJNvIACAQRP9g9HFHcxkUw7Z7ENBKk/nn0JUAABmyTah3HttuwCjeWKj+8xBrv7xI8qJ+Btd+RUkOZlHDNixvSFjgJIt9AouFpNaGcEU/XSjSkoQoQThXZU4S3Od8+Gr1x9NEMyIMWZWMicsRAZE//xB5nu01FZkCGbrMglQ+m2F8baAyY/8ny5wZVHsW4s8raSzmRM8nyPDtcox6uBMFgXZIkUMcsZerY1+njuPclkXf9y6b/bglMkE5qI8niYojlC1k0XI4zSBiP1mL+5mLFz11sE8jTR2fFm1GgJV5jWvY4IrjyYkwmKil+Pn/FhW/wUKjQWCBADuA+4NxaGEzYYEq23KatfkYs6ESQoraKnmcesVnDs2/V2qIqhxiR2blGm2scvlUeneos0JRPlzUfgEo8hAPDnKzowryfRJDkHmhPw/rXafiUzKAOja4bYwWjW+n+vaaPEvz1OBysh1Y9/n/uaSiG77PG3TNIpUtfex8EbdhscFW9i/xo5EX9Q8f2/MvIxCMwhh/+sbGPSKFoJ0q4UNK1xppD14d4w7p+UX6SBI4wReUyWlKPYQUJbTp+RGlE5jbsQ8TVtGwG4Asg8/y70rN5dpjj6Nb7z1IjKJC0iuTwXJ97mCZA8nNcykXDuoVKBFXlKFMjKYFlEn5IUhiD2Adra/7aGVJ98OL8RRoZDLDfycWsH/Ig7uZFBvxYySC8COke48LsWl2xB6CatCE1ACTBoqvmC/9zruBVUZa4rTPKbBXvbmkF/oMJGJwSz0XdQkojQrNfhKBV1/svSk3XpL8o0GGgQB5gPuDinV9xTc/4V9QQVZP4NHb7vy2DwClDuSM67ugD5V8Mqj4THke8S5gYGueg51WFcxzfuPGZv9M4U1PaEWtd/8xT759ICYChEubB+m0KQ2yrnrQ9oOm5bBlsLYT6Vyo/Gecvv59mSCjqjmgTapWwqN1W3MMuU1RU4+EN9RKGRdGmmWVwqti/RkAg7DtKON99VlxFROCsh6KdthIRTtlQFxvDlHTdH6mOkUt92U/4vXLilm5lF1AMrd1KphJ5IiZqtbHFh1iSi+MKJcKGwZdlJSPnMvEi+hC9TpHbRFkk4J6qYstG5W6gbhsK2dDydPgiCb1rJfngoWMGuD0ANERK7R8Wod93zGw7JQRfaa9yoOG50gID9RFWY1t4FTgay3+T4Txefz2hcbwj90x+S1EpNeCNUEiraBefYWnuKrdQuZIEcVVMj4HnI4WGFY6sncfSDvl6PZkLd1BHjwHITJSR65LvZkuJd0oCB6zSWqgP0f1Xo5iXbv6Grscg08NVQu+PkIko0GGgQCzgPuDjHN97pLnEwW1RsqsmszUB1GfP3uqXir9Yb8fycSRLWTG4SP3gcm9LfGUd/EG+LcgKIjBZl1HmpysDp2fpYZqa7skPPUu/mgKfG6HTsvViuIZVBk3BEv9Dj7QH4VmvYItZ20K9QxGejDFyKqCiVyjp/uMKHUXNNLdpqd6CAh4DXMY9N2ddhMyRiMd1SBI0X3se9c8ykFCzrJiMCgNbtgLVyMi49ZNchdG3fHt1RTg0bMYI4UuBlJ/kGY1zTpsszWIrsucDgkPZxwACnGf1LZQncrtOa5Hz+TOFLLE0ZWISFafx1GuU7shnEGXY6VelyXe5IKN8923amX9tAHueDlwklJ99Y4Rrnf9EyEG5WnjyPjvIJLDH2OV9O9TIAGq7i1xLc+ejJyb0Fng7t4icC3r9zOv26Hcqu//gmubBeYIdQsqoVBTWXJZN+JKsJShXjBXs1TG+jUAKrp/rFJ5bwV6T+PsGafauShrpHYvgoeOr1einkbFaj6+F9Hc9t0pBxnyo0HkgQDvgPuDx2l3NIsb5PD/FdmodYvS5IxDeZhnceW745EnJvaXp+OK3FzALOwlATzJG7T9FLWlpRBrT2N+wPxoSlHG8FUKt5doMNysODyr5XG/zx+SSgkEh1+0SYJzJVEHhDsHdFf6c9YyUtx3Ve0Ua6y1/FCy3IjXX01ULw84SSDrXxFKhk0xPjQkWhQ/ACHfdmPnAVym5Mi0lUN8RjTAcXYt0Xg6jRoyB4Kq1MW/sc4bh1a/9P1Kb8+lTpNKCnmJhxbtSYbYolrHUlQ/keowYEEazPK7OQRUKSpmBJwALqmddjfo4RGyL0gEXaiSmcnTVZFijWTZl1wIvy40s5pRxsyUbbQXbscACHJIpEjuJeZZxHro5efNTITeEsmV2eSpmrj/pdjQgKwRCJ8eBp2EDRSY8/IIhBB3fbz7EoBAzaRSmdRDISjLv76F+h1c6cGgcANbqaBguPoXSITFZi67InqL5VHII/rjUiNwzqVg3OfUd6eFfWMjwlLcHYGvdKWeDSLDmz+AFeGIbFT2G4FbNScqLh2W4oCKD9LL/0xCuVCpggcf+1IESuVym0yQBUdDMMKja4AWf9kY4DjYlOTpfLSLqOjMZNYebZvr17QGtgcGC3odaXGOj8G0EzEHq+7ZkulLMqNAr4EBLID7g09WffVqnQbL1ryi3QzLQMN7zFhg/d/cff2Xkx5oW4uYdWaj9Xtom8vATxdYTYRHqJ+5Dao76uuxmjsHQLTM15SLs4jWJutjeSn4F9BW3xwnmH32DLtUDHLdMKZe6NVgG9GVcVaT9ufEbnL9lKWvu/VzpAK1Yw3U4KM8P+yVXljQJxQ2US+t86imbWwjmUNw1zMrEGdlYlrEr6Da1etUBW9fgfz9U5PO//6jjIEBaID7A//+//7//qOMgQGlgPsD//7//v/+o4yBAeGA+wP//v/+//6jjIECHID7A//+//7//qOMgQJYgPsD//7//v/+o4yBApSA+wP//v/+//6jjIEC0ID7A//+//7//qNAi4EDC4D7gwIC//7//mHgfwFOJliFOzpnkUP8L4fV/4tNl1D2fShhcN2jM5wRnYSCEyHz7iVmdPTuM2hxFJ7RkexSxKwgyV+Y+c0SLvbO4yEHMivynW6AZwQDGc2X0jCHQHO84afoWZ4O5RSgQpHeQHawUHTl/hZX1MxAXYXLS5SlEGyMR2aPhzFkFdijjIEDSID7A//+//7//qOMgQOEgPsD//7//v/+o4yBA8CA+wP//v/+//6jjIED/ID7A//+//7//qOMgQQ4gPsD//7//v/+o4yBBHuA+wP//v/+//6jjIEEsID7A//+//7//qOMgQTsgPsD//7//v/+o4yBBSiA+wP//v/+//6jjIEFZID7A//+//7//qOMgQWggPsD//7//v/+o4yBBdyA+wP//v/+//6jjIEGGID7A//+//7//qOMgQZUgPsD//7//v/+o4yBBpGA+wP//v/+//6jjIEGzID7A//+//7//qOMgQcIgPsD//7//v/+o4yBB0SA+wP//v/+//6jjIEHgID7A//+//7//qOMgQe8gPsD//7//v/+o4yBB/mA+wP//v/+//6jjIEINID7A//+//7//qOMgQhwgPsD//7//v/+o4yBCKyA+wP//v/+//6jjIEI54D7A//+//7//qOMgQkjgPsD//7//v/+o4yBCWCA+wP//v/+//6jjIEJnID7A//+//7//qOMgQnYgPsD//7//v/+o4yBChSA+wP//v/+//6jjIEKUID7A//+//7//qOMgQqMgPsD//7//v/+o4yBCsmA+wP//v/+//6jQIuBCwSA+4MCf//+ffUvR1CQAsknNGiytssjBqiNPz6PppV9p8ybNTb8/1LDWanXr0IOkHPhMHE/JKpRwbvgot4D6K0oaqJld5UXZZ/mBKCYFqDIXkDD/57FlqaxNg+Fsq0uNfjtLjX4y6Whz8XtiSXyS8wA5Fn6GkEm/mXLJhcvGIrbduaejOPm5//+o4yBC0CA+wP//v/+//6jjIELfID7A//+//7//qOMgQu4gPsD//7//v/+o4yBC/SA+wP//v/+//6jjIEMMID7A//+//7//qOMgQxsgPsD//7//v/+o0EIgQyogPuDAn///n31Gnt5NkjQsrJoVQqs+idNIWbKAmR8CxLujkBj0jh5gEzMAhYc9I2piEf7XC8lKeFt6CriUAYui8WAnZI/qeTgPqfXTSzRYuJ/uaZzOQpNMzh+ATCGgVclJTbHfF1DjNiZOYYrmCljyF5EcYILgbBLYT/BhX99+8BVKilsiKZhv/3mQRXLgxKzRUtc7HGHn3T0mk8vAEqp0//LaNukWXOAwBEftDYRU+Vi7+Gycg3owSKBqa6agaQtgxY/PbLjYg8rmrsTDPm0Zb5hkd/MxpWbTheiWcFSsSOnaOHwr76CZKvqZwT2Ipr0NE0pQX0vPmp5IGqJSA+xpcvEJaSWo0CLgQzkgPuDfwJ//PXc9CfB35PjBw5T7luaNJDeg4gs1hxyWEWEmgQdo0MjJsbV896g47YqPfJlBMB6BP0AoCDyffgAAAAAAAAAAAAAAAAAAAAjCLQpgvHChXStQIQCcfGlH4fs0x7NIp69/7EHhnCGtbnFe4JzIAf8AABAA7xAADP3yw3P86IV//7//qOMgQ0ggPsD//7//v/+o4yBDVyA+wP//v/+//6jjIENmID7A//+//7//qOMgQ3UgPsD//7//v/+o4yBDhCA+wP//v/+//6jjIEOTID7A//+//7//qOMgQ6IgPsD//7//v/+o4yBDsWA+wP//v/+//6jQQiBDwCA+4N/f331YZcdJD7J35tz/oH6Tlzcj9FzU1m/6VEqYruXIMJC2DOx947pxMc17GLfI5m3fpoH83YJPSySHSdCq3q3qQrYQ07eg5+tCI3PrzNYxuQWV3PcgM+8R2GIrGTB0fhlZrdF7hEM0OUbQUHXoB4yweB9rhPzQ0cNyH0zwUacLbd9+npAMbWy8DQfBpb6LAptMSEmDZF/RnU2iJ6RJ/hDc33YiQv4tds2J3Vp1VNmCXFpaEtJaHdhPCvIGbR+L9ytDZMfeJVxHaJmHQpC93WuKOGZIEcklopmVO5Y+f54w4YlweEK3UhDNyCyGGdulgA64lxjBqQ9422mpLUfTDSl//6jjIEPPYD7A//+//7//qOMgQ94gPsD//7//v/+o4yBD7SA+wP//v/+//6jjIEP8YD7A//+//7//qOMgRAtgPsD//7//v/+o4yBEGiA+wP//v/+//6jjIEQpID7A//+//7//qNAi4EQ4ID7gwJ///594uwL+fchlLtjfYdVptGlfDwLKOBnTq+p7+FSjrYPLALE2nb+7Zv3f4Rg9dX7fKVhNV/bT1Ue13BpMc9VkOMaoCu7mNfBEDWCnkbhbPGoH+zlXgq42tzXGr8P8CO2E8QvXEbqqjGjxvFoALnqQAA/LQC8A9VEfgAP6AqXCcP4//6jjIERHID7A//+//7//qOMgRFYgPsD//7//v/+o4yBEZSA+wP//v/+//6jjIER0ID7A//+//7//qOMgRIMgPsD//7//v/+o4yBEkiA+wP//v/+//6jjIEShID7A//+//7//qOMgRLBgPsD//7//v/+o4yBEvyA+wP//v/+//6jjIETOID7A//+//7//qOMgRN0gPsD//7//v/+o4yBE7CA+wP//v/+//6jjIET7ID7A//+//7//qOMgRQpgPsD//7//v/+o4yBFGSA+wP//v/+//6jjIEUoYD7A//+//7//qOMgRTcgPsD//7//v/+o0CLgRUYgPuDfwJ//HM8vtEAfB4kYCEWd+j7P0+PSlciteKWn3Qh7rj5HJEYFsm/dJxmMV8Hu+ZLVa15/BsbJ5Qwydju1ZgpsS68Q4gtqnlRIQwcDxE7qf7LguK7AUWMjyitrxuyWVt4MWyfxDUIF1a0+KsG322pUhynW7/UggkFY1puZmSzp5cO//7//qOMgRVVgPsD//7//v/+o4yBFZCA+wP//v/+//6jjIEVzID7A//+//7//qOMgRYIgPsD//7//v/+o4yBFkWA+wP//v/+//6jjIEWgID7A//+//7//qOMgRa8gPsD//7//v/+o4yBFviA+wP//v/+//6jjIEXNID7A//+//7//qOMgRdwgPsD//7//v/+o4yBF62A+wP//v/+//6jjIEX6ID7A//+//7//qOMgRgkgPsD//7//v/+o4yBGGCA+wP//v/+//6jjIEYnID7A//+//7//qOMgRjYgPsD//7//v/+o4yBGRSA+wP//v/+//6jQQiBGVCA+4MCf//+ffkazkM9xZWGUsisSxWQquGF70RwBSmZMYmNy2Bvep1HSfCS74Dvy13GQlooaqwevBKEx51CBw/QpMfEfUxKkAHIGfJJf2kb+H1/qCm82DS/S3xirBLQKcDY2GKVudzPRG0xM6ewyo4SLo96WaeT1BUYE0jYobEbD0Y+NNyzPX32NStDx6xNayywncUeC7zpO8AmmNqCkL7QwhoEQK8e9ABSSFaXfddjn+2fBTu0iB1ptczkrRw/PLjMUe1IcInM0LIRg5WtQHkOJtsEX4scslcPURcPsUHQETaGt8gkjLMmjB+w4u6veS/HvYlcW7f+AIALbe+P3kAgPPgrlWujjIEZjID7A//+//7//qOMgRnIgPsD//7//v/+o4yBGgSA+wP//v/+//6jjIEaQID7A//+//7//qOMgRp8gPsD//7//v/+o4yBGriA+wP//v/+//6jjIEa9ID7A//+//7//qNAi4EbMID7gwIC//7//n31LS+jtA1EavyKfXebwOTN9wsSmOPz8Aw4pmw+0UnR97TMu+K3NVfqBJaCK7WhAJ4w+zQQzeCiyrpvKTwvLWsKqQ+XOOdfsDDZvAuotfvgDxFvlznesTdg/rE3YOX91mtWpv7PH8ddW3ogXV67jDEFJ/9xaZ+HXn6eh4OLGiWjjIEbbID7A//+//7//qOMgRuogPsD//7//v/+o0CLgRvkgPuDAgL//v/+f/trrAq72EJ8RweV2DwQqnrOL4eGoCxQ+a1f8bXUdaI4m9eI2IK6ZSKwwXswY2xjgdsaBz9PASK/tw8CZpFBZ120CGlG+1HzyPFN6QvHgxboBdUM0G/bGw0S5jRyZsHWKfY4YJGECYzk0a4v77icTAL9UxU8wfQjHfCJgEACUaNBCIEcIID7g39/fe3akpBrkUk9Gk9gUj9SjTX5k7XdfUhtaAmjzMgCOruUyo2CYESKsxf/1lc1W5uwvSQHQB/XL7LlKmtmlYjL5UakJByzpLZk/ocIKP0LJn5655QOd6qj6oIt7tqdxb1mKsPiKzxVythzx/JLw+Fwr9vtT0JRhLYPJkb9BPvG73/8axZPe0ThGfFdysOKABed9eATYKiSHvo0nCNGAImhYVM55Pd4QAW615NVSrFzlZrCbkxLzE2A8otQAAAAAAAAAABXBP01c3uKgjhBNtMZ/MR0xFQkrsP/ajtwHwAR2pVxVxnIKhVMqlR2KOOf+AAAAEAAAAAAAAK+eoGwjZP//qNAi4EcXID7gwJ///5h4D1duNE7SOHt5jwX1kzNOiaB3vbbmr2staeKUpPjw6xtakwsJPlMghi5SYS8WJsH0Pj6bpezsM9YHljW0KZKRrLcDqR4LXCrQr9B+8if1TWHDUq2Pj8cgFLf/DUGCV2srjZ9DglY4WvCK8kgN5iOF4vyDsYA4RAAGeuoBa4G//6jQQiBHJiA+4N/f3/6l4z1OhjwNLIcSXbYBZhP4+6lhhO62cK4Zcqbjlb1ILLbVEn/LT5W/+xrIckFi9cyFHAIdtzZimyrXJADxmVdUKTvCE24ddmN1+Xqm2K+Vn+Tnc4GFcVxoyT92bM6pAPUsWCLGmV2N0Ni4Zi3OqrzAVCAbQRkFtA0vxomSTJ9763psj8sbJYJQNJr8I4tPKru11XOK4NGZdW5ofVKTguhIP+3kDvBRiUFF4MfooBdvqMOSId/mC/uBbtO25fVOPwp0LWIgA6KDmgfDym/z8DVxCAiwL+hFfHwHEWibdcfDMdXYAAHyt4ggAjtAD/gCAAAAz/3BAAPFiKRNgIS//6jQMKBHNSA+4MCAv/+//597/GZoqUV1/BUPzEZRWwvishOWhEBODfrEJuA3FBQgMTNT3u8VybmOMjC3ZqGwLqE2KIDcUYlmPOaLH/yU/1OZmURhldWpN8jnQ7oXj7QgQAAAAAADtToLiSI3ClyfoLcoY3OVqYZHBnfRoP8p47EDP1o65iBACZQY8Q2u/wui4ynT/YzxUGq0UVgKphxStjeILG0S2Nk34nbfDt8IXQcawiptzem3U2CBhFQiuDeTQzq4ThGBKNBz4EdEID7g62bcvr8sa1CO/I5vyPWD9/H8FseHZ/UvuXtHz1Et7U7S0uxBfNsDQpkS79MqGnUoQK6h7WxCrgfm+/Ozl/drhYrgAhZiaStE2twhK2kNfeMQf67tU1rRDqosyeDnKQNDowIcCwYd1088V5CzJiECw5vyWH73tY9Lcbx3SBx1kXp+9ME5l9niPTdtU/JTbsp5Dn2Fxe6s/5heRjLJd2Vfq99/DqbtsWn4cxzUdM+ZrcGPf5wxALk00xjzJdFyw4okYKjPBpj8pYKNnvKGMwZnVJSy2XiUme0SW7N2hm0Iugonq/AgWro8CpG4rR8YDPD1Y1ultzwiNnI2kGVVz6qT+Z+lE59AjwLsh/BG107RIre7EKxs+k/sv6S7k0OoNra6pOHYqIP8EoVb7mD3YGa1XWuEyX+BFOI6p7ZQY79YdK+MN9LVGmrBIztsXznrl3vo0gIt/cFk9A3Lk/TYYHZzjS4VwewG0bZb/s0+PIipeklfolNbC1LQ4tC/SeLHT0xgNXuxffQkg8kqSqFHC7acBsI96x9djb+bBT+KepkiggsDijTVVTvke2R8gsl+bEsnUHYuRKQhqiMTdEpIOXikyt5TlIhQii0TESjQYeBHUyA+4OAf30J2U/bTUpvGW7rvroxrEM0wqz2OxFMQ6KQ+aCi1MpKP4Lbjfa41HJJ/vpmM4pV16zFTCtTP8NsNcF27OGjRlGXp9FLXVx15jv6oM2q+aqXESnZUnuL5PBeZuDMDomZ012Ty9MlqzFF1QfI0Wa4wBRI/0mwKR/gB+tS/wCU/U15fMMFqTwmwqLx5Eb/PWOcwDoFI2JMxKMZmzScA2svRQsXYJqOCaMT1CuBvSoSfv9x3txafjnyHwXopkbRnxfLoYQ3Ekxp/oJMIb2+Bhd+CLLsps5CV6DwJmGurw7yMi+j7qQRvXSNeZe/9ELShIitOyzPjKEtB90lnEFbaQC23Al+U2DHfF30yH37YpO/pnTkUKjIXJaervbuPqr52YxnhMWV1QIXbGev+zTf04zCszHBYvDkA4zD3AlWMA2FIV8Cn6Mwk0bPQfnufVusdvlgrYCb5uujIKF7qt5hsF70A6fNduOReFb7yfgBpeAcyM5tbe0Ay+JITXPHjD6pbp3So0GGgR2IgPuDf4A7jcDxyIm432aQQYfErM2iumINE6aNQUU8sr/9oN45gV6TQsglXB95We8HXsl4z7qPL0AeQ8HCMNahvFEL0Eek1SuojQ2E4QlBYCJJ6XnLD2FJNWl+ZDT9AdeXVDnNopZ3U4OkRViLsJsMgy8syg1wivRLTb2iodUFEfnmxeMRQB5kgz/3+ximLm+d4I4a89WeQXx/zx67KR6gtU0pNSJPvjy6CN1a+N8Ua5yO7700jt9Y7EurT4smyO4G4eFhJ6m47VsFr/Ev3EtevhZ41JG0p9tpBpx9AXGqeG1Wds36zFp+LrgelA+OSHBSwf04U8Pn9erBZ5ouE75qbR1bdLFairEqM4HnXizWwxQEFptcixzZw3POVGuw4oeiDYqTsvPX0ATfO/Ni4Y9JByK9240kbA1OEdWqcIY+nx9RSew2DjG1QpMV7wjw4lU1V1fYcmwk8ZRBsfqMM3d29xepHaGrbbGzef3mnmOvP1smTO2Ky54FHZmHXTymlmB5wu6Bo0GHgR3EgPuDgH9Zo49KB9e2lPD4pxSMbTxQahu/MH+kYleuVM4TBajWnwzEqtxkZsxkL+EopFArVSC97CRnzhmVIXFAlRSaQr8o7/wzw+qPx/0jh4E0DTyP46ZBAtcWIn4wvVm+g0BSLi4sm2SFlCQbDH/w2qEGfgG1SO38kMuvH9cpDaa9rerjiXz7PJUsf1gyRdd/LfbQ08pzJrPITzpM5pLNU/X7zUqs/ns7Vj6KZruz4LS4ABAEHnjoQk6wJ1ZB4j64euP1Z4DWYQ1ku+MAoZ9sJPmLjD/jyJR25mhpvrhhygg5HB1rtik4QEG2ONfcgNTkH/P2Gh/m6+WpgR2b7bVHwIHV4M994gS9D1ArnXNS4E6IukLXvjSaKUIRKTHBAFYYHxrxD67fLwZrogV5zoNus6mDrVpr6Ym69nQ0cmOzjgvzIk3ds/lakpq++lds8NppCpeNfXO5v5dIENpcX1W1xQlBVk0K1UFS9dsATg/SXFdnoJDbTRSoHODoOXPKliSka81Jy6NAk4EeAID7g047fe+S2C/KkLfY8eMDBC9nA/jbndrdVpx8J7ai49jdt0qxvKK81SkXkI6CfTbiZUb4EPCYU01lfAC3KlYxZxxNHZef8sn4CQ1TPro5l7BtYekA1Biur8PJLgAAAAAAAAAAIiugwC//IIAAAAAAAAAAAAAAAAAAAAAAAAAAAAAAAAAAAAAADSpKXn7//qOMgR48gPsD//7//v/+o0GIgR55gPuDAtv//n2KL4gsrkoUAW+YeBmZgcF/XQi/2fUVj/RdqJ6iT1almVlICXSi5ByZjhPcjxiOJOvxEZMF854XdqJQtihI2cslTMhUPaJNZ6P40gljSSnZ6oOHu86uSvedgWqvTxPQQd7XQTD4niSKUiyt/XwG2/LZw6RuiUKHHEVl7UVOgyskCBZMzEv+11RGITxu0XAGoMPOL/MQtddIcdAcLxzwKOSsnUcJSwd0v2a1/5dVIXk+u2LiWtrlFnBe/jeI6LiJdD0/bjxakewSsGnsbqMGHH0yk10Sc1dUVvqIixrMLhXKLKftX2Uo7RrLcAQqBq6D5B+jfPSBEs7K6t9txEl8kEPyjZB4JS8caWfSmIy88Rk5u3E6/VU6dq8ZrhL49q1EIX34u8GQi0PvfoDQfWnm1dQ9h9w8YkIciBl44IV1gBY+fE7OCYdsosGywgcQIW5lz+pI/MUc4/AAf6QH7jF+hlWwonJ6tbzVrkKxfzak7hVzxSWFGfxSTrrjbJJlEfajQYeBHrSA+4OAfyOccf3gCkF0HYfHfPyn6TBNkwRyKtqXkk3b4IyP9m3wasvwtz8Blwxl/3Np6o/tRy0azq45UfCRZKZ5bgAszDzHPUT2gYzXtZ1pFoll4Yqa6VqQgOp1Yq6HDsPc0dmC8sisB5vmhP+hAGQoD9QHX+xwwVzJNXjMqXwRks9yyz0RVEYxSg99mU9h+lg9oGJ5HBN/kOL+xZzm33a7Yt4wnVhGcolORQVg7BAq5n/IwI3U3X+Vx/4VrwGRkkI8qDgdn0SOrxkYhNM+l5olu0fK1S19SPtsJg2elLpeOIH8t4qHUEJS+VI6296U5VA88xiF14t8aOHhpJSuutHCrDv+E3zP8j+BaGwNhqg4bObqxtOFEGkdm3Md+ged3/tLBzwxC2BlM2TGfqcxhxno4rk3UqMFJB5mmQSA/GBwlP8Gks4F+NKeZKuTAWKcpbbvVr+8JSGPpmE4BSn4oHM30y0sYBrKWl+WFMWDjhikYXtPq+UsQRh70/KEL6edXjbW5xfNo0DZgR7wgPuDf1B9v/dloTJwktDRLk2q/+5+w9lnWtLa/JuYv46jLuQkSrzai+lzkmEU9T0MInqa8LZRXw9i44lLq3nrdfea9MVR9Szd8IRAo+p8Ox0T4iovOcqazLwFsLkTBak4/Q+edJxITmMG6wP/YDX80g/V+D39uzehCPFtflC99zl08kZef/qhSsxhnhvRcsI1TPXgOkBq3k8jFC7Bt6r6158752TFqYgkMXXVbnHm4GVmKbgoAXau9p2gAPgBPuUkQTRVhEO1O3AAPA4gD/gA6R60yM3//qOMgR8tgPsD//7//v/+o0FdgR9ogPuDApr//n3biEd3EXf1T1hrdKR+ESkVKzXZsfy+LWkWmFx6vmrr8BwkLxxRzIj9ONgeUkeniwnm7VKfm1Qja6r4SkdLlGFZotRvpTFNEyrdYyIm+UoQiWPW6bQCrXHns4ONoJsQsaQrjvCzFNs0SB3H59nWHMSyBmvP8TxUTJGNY3nsSfjYYmGLDbSLGY3KW3ee6r5LeB3QwsdkRyz0FU59xJntU02CZrLT7M6mtoqBiFanIGqlZIWo3UvfSDqmDvyypSNWG4NetjnsHwr9+HooroTkHqCETW//9WoQndKTU2fmn89+Awj94Z1pMV5Ac0hWn1jAHhMp3vULkDWb6LLfnzHfFC27O5U8VeZV1xbxyZkaAFI23u/8qiChRIXR+G6285shA4DFFFQYKfT6cC8xzAKiBhIDQYuqqGlQHf3iZqImQbojzQJPiwTF/jHhx1JllyuhkWQBaqNBgoEfpID7g6t/fO0SY0MXGvzn0XvaWd3jAbp9Kqj6G+59HUw1wwPRaIcxwi/zf2kp45tvnRtsLehMYvB6Pk1m5NL6NGXsIHghp/psrnMki4pKJMzUcGlh74JEklMNlX49wwytWgxSzsOPS5cLGR966yGchPZdy4qf39fjrShx9wTGOENqWCtUUoNEJUN6TZL+0JiR7sCjB8Nh8rf7fBsRy5X6mfMvFUxo8FaUrV6XkC7+vzgAfb2tUq1hP046UUJzDLu9Gn9+X9x1wJMSoTEEFTHrpFYS9e+O0+rGvAABUs3g+n4su+SOg+KuUrp3qIaHSQHCItfiSlyKyygzsJym+4zraMHUd1TCdyR26spXvBfjk2Zn9ZktAAD6eKivTqnxT7ShHJs58VHPofC4GD/NmWPHuH/5JeBYaw0dWuNoY3+jOoNgNaY5Mg7JdGZgkerIuJ+oT+P5/yzjLBmVi9apJiC0H7BR4rH++e2eCDW+hdIpaT7X+WKW2+9CAbDYgIqnqZn+o9qBH+CA+4NOAn31NDT8jwZN23dcj78X8sf1dwyocN8OQ8yqgP+viXuHU/08WoMXf+jEGQMu0CR8iXsB00hDOZUOe7pqSVpdFsYQtOtSJE9ft4thyeSEqv/+//6jQIuBIByA+4MCAv/+//597Gm7C57PcMCoZeTipH4MP7O5JEpRdHKToSS+3huZA9xzS+yOg6xQ2IPEUbdfYDyGS77tvWGtECtPQ58reEYTIw/Pv4pPOQ34an92M7DnKA9MtpixwYBnUV48zR76k/GG6rcvrL2VRfonRUhAZ+3UBgMuYQLD8/W1SOJemDMPo0CLgSBYgPuDfwJ99gl/8RzBmKqhT2j53zpTzATw+AXji7vrDTmXyLhzP90PRz3Uw6rDOhtZGc5QOe46b44XK1jd0GUmdFwH0YobE4kg63iWkYCWYPGNGk+YQ2UWgH0vLy5n+u8uaAtvLxbzjw2iFYt3alTSzIvde108kx1V4J2EyCXghto+epEa//7//qNBbIEglID7gwKw//594AeM9wJRwyOi72kDKRje3Y3dJejPRNSRxLgzG37Pb/o9mhJz0HForIrjdasw8hu/RPP5NpVRW4SKDlWfbDObcBBQN5ntPNVRVRPDwndEofhHUnmKw9lDqlTM9grNPAUMhssZ5Vc6KHncKXGSEFII6Q/rdZbt2FTPTLiYTynowyaT9yvgaqJuwX8lwsIKpuhGJ7KzXGokjj81rMIeFKPWSqnymD7hBsbZbv65XQvmjBCXq5JvGeHpZAm6dIuCS7PJucohgDSCXJmUkTbiUzQI85iQ1k+pdZcBjDNtZamg1R+iAtk9zeR7cmwF4Y1cOXY2sXWYOl9SqvAnpsS6af8/JTcNjxQuo/zxkX+vwtLnVRVLYNM8lGrTrpHlhifY5wAgHn+4vrmb8vJpTLhKHKF+sL5DPeTw5Eem0wiinEJZTUCi3pjMcQVH69C18O9fjA3AC9XJ1oTzQQTRxfH1lVXgU6ejQSWBINCA+4Ocf3jiuY5p87yfzOPnLR0GQ8BwmvqGGJiRwgv9pgFbfICs02lbovmGhuDMahupY+TIxJ0lrZXvXL1OHgaVV6mBvxzr7Qg296HD5mIyxn6Ud6aw3ahYHn3fuRp4+qZXFNH6e+XNjDyD5HhzDDkY6RRZ87gbFiy1y1+j1T4SNGLsNU/j9LRObSb7vzviErRBD5X8dnYhbGXJoo/f0FGrJX11lrLoYHQabeMZ2Cfug9VKN3Us+l0xMJOSHVJUkvDhGo0PpjLpNllsvtFmMnWyWYdMcpVScB6OCNuZih0XZtiSx6/RxhRE/+m6MK1QHIR+QcVewDD2iVn8OSKGTdj8gmwJFlc4fNL6K2joHzSyYAFPul3Xq3rx7R2x+3RanNn//qOMgSEMgPsD//7//v/+o0FvgSFIgPuDAsj//n2IcXq77bCCYNkr52ttVGAqlBzpEmznH7nUZLVbCcftSUI8WQIMBIMRSC95H8tYlYOgjpLebsCbh4m6OEQIk4M1DCfwiNtj+OnSbfCuQqesGlj2Tv4C4J/wSZiajTPMKG/3LsTPGVo5DR3E6Ur/uKzHfX1qhWCF58GA1VgIl/v+GZin5LKsYv3oVzlAwuDNCoQs0BwVw01IM1uYoJqTqAbpRz02lCDlvJugq02yVk6YK8YCTJ5YVMoPkQE+D9zDD/pvFJgzD69/fb/N0AUdfD7/5P4zSizM7HVjGKTszYk1jHHlY2APXuYn718FiPodtoCbpkbn+ayPGP63yxnhNDDhT8MegbXWB9nxY47xkOBTjCcZn77YW4au+pmuKjpjXGn3EOJUaKDxVRvrm3WDwEZIqZenu/mXyvQ9OzYq72jde6ZXZu2JNSr739o3UTUgQ99AjflZOT84VwOb8cQmAqfM+LzcHqP0gSGEgPuDaAJ93g+vZOLm2RPwEcETTNiYnR8VT8Dbcaxz4eEGtqMzpKlyNgD7PKFDan2RbkHtRO5RFLmH8RuyWDYQjb1G2R0KzRfxbt/kKWsZlL7KKvwCxu2s1zzmw/sFwQ2ADhu7ALtgUcd4aO7t0f/+//6jQQiBIcCA+4MCf//+YeAj0bk8Ffw9lM5qHx47dc8L0bnJVV4YXP3awBcvrxpxRQF3cl36tfhB1Djf7x7Dsx3sgEBNv8hE/lFtkHH/6noAX+sXHUDpHNXcNHO/I3+thjVb6bkeTL8/QF1XumOYZ59KtUS1AR7NpEtket9L33Pe4sHaBt/MYs+tf1wEyn3uOcddlKfvG2nyqF4KYrLc4fffGr/1Ss21mxT3wbpoqOnZdO0IzXIa3AMXqxWE6uGXlyrdfyY3eHG8IY/ARcDlQpD1CpyMZahBHbyZX86wQXj3w7gja4S2hRN3enpBkDGJb6FJV+R3NzovuJLkC2iDE9wFoTNdPMEQl3fDHiajjIEh/YD7A//+//7//qOMgSI5gPsD//7//v/+o0CLgSJ0gPuDAgL//v/+ffitndnI5SukheYqAedu9kpJ1qY8c6rIQOPDchCEnxmnQN9pHtafgPRzgpzg2S232cacKgwAAAAAAAHBYNFlkt9YnTbY2i+JubGCXfLYqx0hew8px4AvOaDvQVZgMMBec0BhkAtzivPeRiMrrH/gAAAB7xAAAABn/MyPf3h6/aOMgSKwgPsD//7//v/+o4yBIuyA+wP//v/+//6jjIEjKID7A//+//7//qOMgSNkgPsD//7//v/+o4yBI6CA+wP//v/+//6jjIEj3ID7A//+//7//qOMgSQZgPsD//7//v/+o4yBJFSA+wP//v/+//6jQQmBJJCA+4ObZH3tfV479RzFfwtG098pABxULkZlNxlUvqWxIzA15w0lY9YZsujNJTNsLzefVg7wM6wNtTVICtegBm/33za8koVCl0D+YgxXZwSemFDHEdwIW8DIMr+wlY2OJeGxqNJ836Ke8gty+tPj9SzNvegFkxOypwDnL3FXLylgQ9DGWqsreItU3U2tyh2PfWm8hXhiSwdr9NN4vufthUcVfeIrjgThBMmd+h+wOXslVyenZI3vXp5cikeGmPw2nbels2AgJgMA2kFyMPfx9uXsvN+s4ZUCb3aGHUA3M4TpJ9vsALspoclZJ9mjTkslAinxWFbJCmjti8TYzTwJRg3GR20cMP/+o4yBJMyA+wP//v/+//6jjIElCID7A//+//7//qNBCIElRID7gwJ///5/+L9hIeT+J6lF0uPv8dILhxIaK2cIhbR74CcmSlI5hAJAUPjRnMVvZdgDrYiFk8FIRw2FtCHrP4od5QzE8g/DaBuAioTZZZ8VAsJYwCaBFxuXbv1Bkq4ZV0ToMWBgvYAzYyhhY5Fw93tfc8GxROCP4E/XwYhoKy5DGEBd1vRUf/cIcl9vsVIFcx/4VyjcGfL9UPnHXr+V4UIUe5SHTe/0ndWDmLnC+O4oB6TJIDdWvcPdxA2ApFxusatT6uDZqllUbYsiQazaGhbr8WK8QAvV5Nup1z3tdLmo88AdtUbeR6Ut5NCWFXl3bd9x1S3rb3/qKkKkGluWP50qx32hMaOMgSWBgPsD//7//v/+o4yBJb2A+wP//v/+//6jjIEl+ID7A//+//7//qOMgSY0gPsD//7//v/+o0GIgSZwgPuD1al9htg0cTIvKbx7JxTe77pttKQv3FmQk7MW4nVphKSe/NmJs6R9FWBtvljwMzaQAfBdNDNTIUG+eoMPcXkeDNnOBqXGEUG/8IdH+dLnkV5LSAjngJeHzeMOMQXMAppaO6g6uWVurpcCN54PkWl7U7eqxzEqXuFEt7cuOgN382nSdZ7bl3DR/JeKU9mwg5egCB5/FyyQJwE+5svSeZkWZDglit+FyEw/hPdy4jssc1FzAKFXpcr64u0Oa+MJLoSlEtbtWfGLNtymAc6C0N2GUMtYOGgDDYV8ypOE3RAeRSyiM8m2x6yitYvFAuAV8eOEcRoMXvdUAtcfrTtDmoFRvyTd5rodRVkqs2fOgfQ9DQtarLTwlR9KatFtKt47Ccp/F637EY4OGhwfZ9TKmuGJTH12HrWY8pv1nA4Z89JUhDKH4qae7XXrElNwRWlXomDZ9SX5CcBnDt61rrro8Ynne05LbHd43vxM827wtfrazqhlxxthG5iibQGJ9gtkQ+12//6jQQ6BJqyA+4MCjf/+fcdfpApjr8Mht4AYsL6xbNBhWfCvIm1l+P7m7rQonb4MNwZhmsROaVNTwLF5ySMDrMyBQh4rBUTDfn502ZVbHCRPh2AmZh5wGtFi6xJ9on3KTfiQuPtXjNhTZGy+DQjwnpNrS0Ha6JW8Onu70aqKYYiEuQw7PWSxBWvhLGln2WitXRMDM8fxTPVN/wEjfd8xWpN1CSRO8/35nqZXpPJ5xmZ+j5qLJKCFql16DbEJsDgvt0W/OXWniwsM+t3M2oeBD85i7EH5OLT+hkvsoIre+AeshQHp/AhZtCht6GK1Mki/ugUp9/IXKqIf/PJFUCV6fVYDIpfTEy0BsUP9ljQ81i7xp0qjQbaBJuiA+4OFeH3tS7R3xkIBuHoryTKdZqcKDpTUO9Pklr/ZiVOL6Td6gp3fZJc5zLBps5nYtLYjMpPFvNw/JYFI+xcBLFJM1o/W7IGUSdSd6Qin11FhfdJfwStmyAg1N9RAEpFbxhxdkW7pe8BWdtMgxM6nRCYaGyQ/p0TSOQXmwOegQLCsfFADck47tUt97B2VLAk2ksyWDL40TStd+V4C7z97/BttMyFNybGPTiLU0XdojQ57lpkW9WpKgoZsSixjxWERLpP7wGfYktGd5fmDD35W00A1HL4Jldmz69rcB4K+NSQ+ElHul0gGuN95Z5Oc/CodXcBIgQjyQTurqz7j5c0Jg+p9eG5CH45ibxkfIr7dzfczys3rqgy9IJ8pMMYuemumyDJ72E38InHntb/hJzmkVzmKt5bErNSinD4HSFCJqHewjsRBWaElxZ2FEzsC1aQnONpEo3nvjniWCAs+nz4vd/yOpq1M1oKBViyDyWcqJgsGQNlr995WIavE2b2YEbCLpVsqGotAhgVieTlzPsOlQFDOJ74Tr9o1PMZlyO2yv9UCu1BCCv/dlspzty7a1Z0S+NOjQVSBJySA+4OymHvAgxts51vqFyhG0P/OuJJukSUVCK8Eo+rVicaLo4/+KbDssPcflX4/cv78kBoIiOHGoGB7KqKM9Ut/FBg7MWLWYkDmnsSGFFo2/BgE/7sk5aE4kq+9NBsRsxdQ1sXomkUjnicLDA09SplSJy6WDC4M2FznBeOxclirRbfZz4B0S+2R9ZH5p4logIAUczlowWZygXZ2mp5s3CigA9dkQ65UFpSLg6DwkDqYA0caj/zoOTB92pUaqYWBkGfv7JkwKtMQMhjOb2vpK1xY2CFvNzWvLR89bTeCS5YUOplCgSLyhOpsdLcz174n4F9xBSXzvfhkMmcwQQA+tKVUPqD9LkG8lP11wKSxooh+p6E3X16s07R6YkzLILE5eUyXwPIIEdDkTOOnsruznxa3pyDDEAho2G8OxPVDsstwgRAD/jMIwvoMmJKjVI0ebf/+o4yBJ1+A+wP//v/+//6jjIEnnID7A//+//7//qOMgSfYgPsD//7//v/+o4yBKBSA+wP//v/+//6jQIuBKFCA+4N/An3uc7l848MXFBoqdfPC/Suz7lLJcXeUmB1AKcCtx+l0GXq3WGOWkQ/P3/VJgV39rebONPA/gB9DPFSS29uuJ32su5NcaWKl2fw4tfiLv81b+oQ5Yyd9T7SKiiq46eUU0NRU/Sujpf4HWCWaoDN2uniuZKsgTr5wBf/Gm9V5uKT//v/+o4yBKIyA+wP//v/+//6jjIEoyID7A//+//7//qOMgSkEgPsD//7//v/+o4yBKUCA+wP//v/+//6jjIEpfID7A//+//7//qOMgSm4gPsD//7//v/+o0CLgSn0gPuDfwJ9+IxWjpKlRSr1w6prhkxKRhNVzJtpIisxJ9bQqRONaaWpzyFjSQRTDwzmh9c5bfHQTo66HFP7qtlVef891DF9ZBTvIpoHFIVn3C2y92YCnxGQDIVtGdJV3i3kl5KOUynVDioI6+P4WaTz88GpubbZ3fo+ZHY8W5y7CkyRFMcy//7//qNCBoEqMID7g6m+f/a+AT5pufen/qLQl87vrPO7ZYPa+fYDaZyzszU6Cy4wa++ruiPPnaRrXYr9qVj+qh/2mwMuo/PV8dqn1PlONLyajFAIlJMYVpk+Cu/ZMZV/Yb2Rg+rxjAq3R4vK7Xqaa5IC0CrvuHDheFP+rsFAM/2gAuWKx1a8aislSbo1MXEKclNPVXV5WNgkRDqG0uejdsnAs7VkW/b9HMhqfhLMHgIpv1MX4yM2pX2EtrbUI6XsjuhuRjmoqG/pSQOqO1r9V9VpB0J8S7LN2Sr0hx24En93g7k5Y7yRxCvyRaNgiFykPw0TTuveDnwEOSfIgZj7ezamlwHjrIsbZATMORivd8Q4UkTGfIi2qjnAo4oOjfmuQhXdLLafzbVA6QeylyouL/oNZV62A/GKv69QBJgDEvvnGc0OUsSuADdZwcXYKw6QBVdKdb9Q7fZdyG7yfv6HSBf0v5W8nJlT03M8f9tLFjw2z5BPYOZ9xbKAhNtPNTN1TU71BYDPpqZ36yY5YiEOJI1msOLeYNmeprLs2IPdc8eLvX9bO7yUIGXtJ/rVZT4WKPzHH0WcmkG4Tk2QvHqgT5Q8x1difYxgGyuhGSEysXQNG7ZEOtPLkCTGUC3k7RZshm5LcrCV8N3gTEus5Hcsc42goVOT/BoG9jyC8Cc4wNyJKy6nYdS2QeMBrZZco0CLgSptgPuDfwJ99PBzzzg7e7wMSrLUE0cPWgeAapxNgjvd14eKLgyDKj0U45it5O4upXfJRYZo/rVT79NeICMpGM0z1My03oWh/QsoTVsMHqrdX0oOKJkVIHhyrB+PtL4wDxg46jOjPtbC5ScyoQqbvL6qFPej9dX3E8yW3gtQHOqSa/u8+NXt//7//qNAjoEqqID7gwIC//7//n3cNdwRp9BqHL21niqQtP0g6dbgTtqsttyz2L0h6GrWEWKmvfGzSysA8RM6P47PXG2iDI7Vz4YAS8BZbFOFAoju3jB4qr1iGbxiYWLBxdMUAxC216Uyj0i0ljWVY7noWv1CfnPz7wP8nNbch0/zqfLDKdoIlPNFa7YORlo9xCCULNKjQgKBKuSA+4Ojo1nE/o2rWe7oP0OI8OjA4PwASYw/zWC3Lv9wPRJDGLL3JQFQUMebIT4RVJ6Yt237J69SYMDyxtQnSK31+6GQyCHEx7ik/ZKBCknONW1pC1gz31/Z6TTG8QdKDNjCEYakyV/5j07for2ZOo6UrPTXdXHTRv0bokmpU3MKCi4gJx+KYg5glf+mVGk2YzAyTlvelZq8sHAmC2moSL0b0q8yNC7+QFZD3DHznwkxq5YbOTGz8Fa5HAIxicyPjV6b5zAmh/xQRHvA82xV8XxMUTEDFyR3OUhqXUjA1FK8sf2Kz/+JWxYchK7sNLInynV8jnXEiP5BEDKM0Wq5WI1LEuZ9beRmGh5A5GnSXsczWnoJcOgM6zGKtn5FgUeug4UFMI/QKiSYq3/bLxPo7nIL5uP786CJUIZvX1thAZBs71+/oCnhAuNDUBh6fM0mHtIZy02QZS+oZ/STGSgL64laoTbFlaa7cAe18e8py52LrpEf1yFOcad/2UKUySuGDKqGzL1oNvJ15OkvBb9TCAtB9p0CSOwf0QQXUSTPpVl+5rbWlOEZBQ4ci87nmsyndyUKkumotFdoAPNhn4yn94l0UD6LsEVo9IaBmk1/VYOwK5n8uLgCrwgI3pUQZX2OypkKiNTEEb7NR3UwQFVaMji+PDj+RUDN4WLaUwGf3bEBo0D3gSsggPuDUJ19+kKaKPE3WnWuFC+qziDbRhUX3l0w13OKQootGJg6320G4KKEiyPT9cnmR081R+NLszslWaVY2zqgcgbOUvylIwgIehtl12+wPDMFzKIfNX3aq9l9n42B7E9A2Gh+ViOQZ7cEtl7PF0hLzqH63e4DEMhoCLdeM2TA8pPL/GMELNY3230kYV2LTzqIcqE0exEVrDRgADkuzqQiUaBZgQ5hbrZFQMvcs9NCQP79e4EEfvVCwGMfTZSMLomcoRCLdeHY0lpF6IItBb5i4M6jASk23NNYjixRhAm2VBA9Alr8Pl5U+9lOEkhp/8L3ti7//qNB24ErXYD7g3+0fe3Wg4Nzaseu9707HAum0MHQXljzz15FEYpmexun1slZyJUmj6I/dkJSpLJvEIhDCdZVjqvKZpXlrO1tjzA7EzC8eFABMwfHQj5sfYHExdrwEQM++dk+B9ZujrTUhSLi2xyrdy4mfTHzsNsS+BwPREynJ4M9qikXkdo/glUwIn22BSOILYWvpLEUPDtJya1+Lfv2O4F6kdBjdBGTzuGZJOwaHT+mMWPfb150kGG52TzXQX9aI0yoKBeRQJwk2gwvBh506g9+RI9mfPKxSYsw1VmB37sS6iUKWKdt85ZwFfsi/755KIprEVmI0kWRq5w3RlGTVBv582FjXPV9um88FUmR6Z/poa5z9aIZGtTdnwAOmlSwqZ49bj53yCxQom7hCgGG2hxjlgYdFKBtbCdDL2rx333tWJ2mQ1eLfZLVJ0FiwyXk/j6+NZ7MIa/b3lX3d2/4rnanp5N4i9GbdsUfHWM9JS0Pl+Bm/vqtwUiWCIWiCe6h7x/+0OUoAO2Cw7gngPJsYowfYSE5Z3qIrB1SxdXtp+zGrqMZ7CQjLG/R6GXm+YWfhiDpMY/g1NItE/2Yu6u1nLFZXoj0Vl932FzZ0CiezoR4Au4CYee7JU3A8UlEo8qjQTOBK5iA+4OdjH1/W1l0+TfXDAGzIvVAHIHHnDjh8RENMo6mo174L/DFkzEneFu1FPaF5w+QSp623lo/dwB1ar8cWWnBxoZfbFw7iJhLonLpmbl8EMOw9be7lDPj7WA5DKrmwjqBSOe0DCF6np6wotSLrykY0fD8VPHbc7E1eZons5OMMKDKfWKYtEbvWaG9FM04kGM7Bo2UTnplh3noRsIBOmjNaLd9eGztyjP7r2Gq770MYVnC+OxCg3AE0U+x3mpYuzqbU2DPaswcG09e5BC0I0NPHDBlyYHr0JZT9q2U8Oq5iXiN+ilS4FaYP6WNsApBJO5ygywazB3vapVAwYlGtP0NkTtM/w7ptybw93lKik6/b9yqMxv4bwxoRJIyJxoKYdBU+eXGx+49vL9jSpqoT//+o4yBK9WA+wP//v/+//6jQXGBLBCA+4MCxP/+cu0w9yAJ8IsldT9Cnab6S7vFfwjgRTv+znxsQBgBiYVAr5Ez5oX1o0+9FLxrSOUVpv1DsHAhw7tv/Mwr/OH498ZD6842yLKobA1CzHXpY4GjbgRdKqSPduRnZ/RkKVdN9ZWhZPEZQFN+i6baTQ1mTQbZNt5U3fECMmbGTo0KQVpnWLTH9/SjYlp+XTqInS+bIEnVy71e9DUJrDp7fCrZVbvGKeemAhtLO82bJfyQXjx8/P8sHSaXaFttnu2Ss99T6f8c4FDyh3CGXJUlcBZoQ1mD+ZDpw4IYUzH87NUwh65mHRWC2VivslZe74qRUU6Z5GrPIpEUNsBfTVgGT6ZrrGleAIkmhBbLcFS+70+j+qYz79wYmhSj8TqlU49Lw9LbTxL/q/6eV2BKHKuh20R4xCbkkw3/Ys5C4haGgykeGQWlXGrbeCWv3a50EyQHKBWOT6/NFQQbMtrW/DBMZ2gpBgSpE8FV9B+jQZ6BLEyA+4OXfzzkkVYr/lPV7zwEQYmfUJMDwU3AoArJIyeW35tLxLkQVjV0Vm5pk7kjwcL8O6S6pIs1BOKcFtuFlZzdagYgDsA61f1zjML6TbsD4DYG8oe3IwVXp3g3aOLrVy8VLAdjy7bjp3ROt5TL31NSx1c15rztf3jgGASYBKAsjy/ijiWx28jRRZxZagdvIMs9/7TOGgUjc9a8DZJTr9pza68T9oTZFecSuZ4+k4Fek23ebi8L8f0e2FQXGqL/LEm6Ddbd5u3f5cunZbfyOnlarK3hBbgaFcXr/JFbsEn07zJbNQNMTrhV4DGSpXdmOWwpPZ1sh4S4iRsVQ7qctUVQQiyMYZXwiH17ScO4uN0i1gHGgCa4ZB8b/g7/eSpaNXxcOpF9jCC0bUtT+5nBGDp+o25k04PKS/vVBR13RaC8Q90HMUijRfjuGstNoLZBT37a1k1dhFPvqeKG+AQB0HQvgBljhOj79IMGI4GG0eNKazjkZkeBAP9tn1v2OQ1wIRGErovRo7yBD5EgP3vfl+z6aTpieYyejqYldtijjIEsiID7A//+//7//qOMgSzEgPsD//7//v/+o4yBLQCA+wP//v/+//6jjIEtPID7A//+//7//qNAw4EteID7gwIC//7//n179TvdIGLjpsvQ/mUSm1NzQUp4+DSClOHxTsEHM1LtVSSmdFafn7mBp//0Q9r/oJtQkdyjli7zBZWgY9yD0b6XAl/A+JMekNhVTgoER5oBvM8VSQcm4yaY+EhaqZ4hRpR4yfYHK0Jh0RlxjVNVL29oyWtnAzChCG5ZSheuMyDfDv/3c32EbkkF8n4V69ZFZkU2tM9lSmbafcS+YvHymro7KEkrzbi/IWZ71uGwu/BznuPIHvBGGaNBXYEttID7g7hOfYg28vOqVBfYTMIAAZFrmEJjDIO6iqjr8NOW01cD2bCGc5zJOIhPCgMft/FVB34qPTgSiXBmRsp/1SzwsS5mtk1k+XkiGMj1j+aHhuZd89vlYYMlUiWUAFKCysvJSx+RcAm1M39pjjjEW6OuWRe/093MRHf4L3T78RIn6PNr1mt0Q6unmL6yP3pwGNUMNhSwnbQY2gQHH7CURGyuoAaewJQlD7RjbQEGd8hLtSg6eACra/WU9MRdzH/7ub6QhU9BKwmvpYWdhlbSPWzqUmT2Rwsk/OshjKekgwYXa0HWCEWPCBPe04SjNQvnr3DFt2qMffjQIvXKH8bJ2jbsp6+etflCISCIa33vgwfTq24hb2LiXhI7eGLdRau5CaCKXmZ3hKKncZ++soBt9JFtF+Gj/dooJysIhbIzsl0l3aUdGoOAg0Lqqs1cN+p45LSXI7QUwHzjRvSjjIEt8ID7A//+//7//qNAzYEuK4D7gwIC//7//nzfVnYpiarxGJzvyhkaCB84e9Gs34VhMm1+mhROz3oszuSjY3+vKthkhcAmuOjWeLaWa/SoxFak8nQvw3G9ZMh7QOsjRcKd3x1y4bGizCIM44foiZm8wuHew8BYglxazFkojbyBklyljBWC/hiXdp0tf1d7ClNKpaYqKAkKrWPcZuS2KmI1xxVRSgQ866qKW+TRj1ExFv8+82JMEv4errFcQmT8lD+n+g8R73uiIb/wzmV1m7nWK5s/pJStVXeEh7OjQayBLmeA+4OjmmA0J6uuIrTPG2Ck4lzpUQxwkfId2SwE1ViAxA+KGZXKIPBDturnOUieQU4jg8HpdK3ls2iyS/O9AI/mQky0HbEhggvZUq5c4DZvASAaBPPD2sF3yD03rzHZ/PfZ07fUwwrmNp1ekpQLByrUENVGOiSMOmlPAIOZMg6pVuapeJnEJZVG+065Y0Y1wn9TFVPZOI8LZXJcLpYpfZOWGrP6k9+AX3J9alFD1G+Oe/OLPBYwiB1PqZSIEC4FsuYK4hwpcJSDsnTexuful8LcbsW4FdPGJjvuKNdKEX8RPoTEbWhBCi+jeXc8UQvc6WdOJ9+MXYhD41X4tEZBS/UrfxF87swqUDws60yUQdtoKkZA0JHwIsSlf8IsIx/VsXRKqqzJFeZE+ysEDJkPe+UnDB8s3nrZrE0vlr+R647BvI0ffeI2HeFVAbdnfferjn/snUGtXZpWNv99UGLkE/0Rb7ES7yp3B5AUHeyyPkeXx2dWda4c4JPQpJZ1VvfWUzNIql4DLil/D5wJ91Ch6X0znljAQbnVBquiqAlVRxLA74sh9xnzsTd5wKOMgS6kgPsD//7//v/+o4yBLuCA+wP//v/+//6jjIEvHID7A//+//7//qOMgS9YgPsD//7//v/+o4yBL5SA+wP//v/+//6jjIEv0ID7A//+//7//qNAi4EwDID7gwIC//7//n/8iOssK5XdsrF/F/YHolGZKuK4J++OKCWue7b76Q6bBc5+R4VbBPvC0MKyLoxPf4oAEXYZCX8Q0WYUAAAAAAAB/j3LtBjPJbBRy0IafzN4YWeIXooiEVJqO7J/v7Jg5o4j+i4IJZY3xOAYDhR4P7+BuNvf9/nHVAvNCEKTy4ejQfuBMEiA+4OatnnHb6zw+YRA5JSLqnmsb0ghwCA7lkrjnySZrnI0wRG021N58YKPIXy5g+/aNsxVatoczp3Y9be6bYlwWnHuxBPcGUf+qR6Rj0792d07I93VclL/kl64/Cu6EjB+5X3tKK58C4QF7Y2fVba0RXnb/c2Iynn0hyiOKPQVPGMStVD7vWehxuMW+jWfWsQkj7RZwSHrFBv08aKNpI8AtjoKc5Wz5q8pY89NvTLU9teCCpDT4Zff7qCPtUJMK5IhIz6dfqPyChu71VaoeXxeikwY/XDCC0bZfSEZ/gQUC+1a72gmLcaL2fiprKebmGFzFAqGnvHgHS9Lz0JBE6jtkGsgOk2ShLmMbybCYqRuLWW8hc0WmEob/mmp2uMaZPV2K28Y2vWa2uQ8h8OV2boIW3v3W8h/IsT9RcWmBGFQ4+izhW6wCvwZG5WOVhzU4uvjyhluSnPckfYji/bjQvyBVxn7RqgisTNuhiSvNIUwaSF4GaPWR3WgtSdWJzrfdXXIzqzMMp7EWh9QTnMPksDg+bc5HQ1PNZQhR7PLvvZRzzYQ5nSJkyPJm/Xgd12F85VvCKCC6cJGDwnCQCQKgcI4PATuyz7k6t8JYWv8t1c74xqcL1Pn9Z/cI4kRujaXoE1Fqb+/TYpi8kaBa3UHmRTOw6EAADP9EAyjQZGBMISA+4OKgH3c2VhBqA80ho4kMFfQSCvA76orE29WdXA2T8aw/Kb29eLLOWZ6dzXy0zfXjKdekj8hhGugtZ7YQZ5Lqw0MDIChdtxF/JiynFJajIt20inICtst8u3lr5Fcl2NxSejPoZLOrvxlfboIIo779TnPAQlTzVKFE1wCFpuQSVUYBv984vfm+Fu/FN2nLCkt69BmnWjkCeTNA4xfd0VeK7/BVvn9N7M2xBsw6lxq7rFjqzL5JXzQeNPGquc+rEnQewDetRD84DvhBTJSinRfxn7oij7nzzHiokblnC3UbkNXLlAH9Hn0DE3Z3JqlPZoOHzENWwFHSgHdfUTzMVSri10lSZoCKOfvZ0WIsEmRT9fzwSUamN0jydOja4fC6odAKaVkzrjptxV/HDv1G19vLnOsMtYxyLIa82TpO9QV+qUpI87O600urZP/J0/QEycttlH903V5mb50vEElF8VTRsR192SF1uxYIGxqEvJHQFhdQrm2VwLDH8LNsiRa4t6i6yW6pm/1gvvJypYiJKNBh4Ewv4D7g4B/UbxbxVoWAUtVS6xOFHu4RG80F7q08PmkwA4dpsPKKk4ma6bie6BbwmpYOFxKMXqlmVewsw56BPWPdOXB4OlWkQw+iHcMNa4H/EUC9qn7UwH20tGEgCC50TQ454LRKHB/9Ldn3Fh2nobak1hmUqUtSbcTH1ZpRzJEXK5dIDBX1189kLp4Ek5751s7NemYV4jjK4xYt7R3xzWfdkMNDsKbYwo7juYFZdycBdjWGAmJC9jGX2Mr876foP1KUJuv+0QFs0SNKRo/9k5Yie4KgzZ2DwirqsJ+FtFfKbEnB77dQWxMh4BNorbrWN4g5U3md1MPo1ZhVrABJomTkj3lKbedUtGoYUCwnzO5OruqHuo0LoWSPX0kZDn9jsW+eDETnbkxJUCdYXtykHKCj83tcgX5+GSYXZ1noM2dYgwREDLEsBGyHhMCcYmRONbH1WqYHGrciCsAluCo6Y/LkFYYrkfaY5XHMD9vjKbqUIDLAYRf7DHMSDdZv6v9wPCajV1U9BSjQYaBMPuA+4N/gHi1pPnD+1ujxupCvT8En0hY178F+g+UbNdMbRnmQsjnyiIShDPzfzPs12y78+XPtz0n2Bq4gQ23iswkdTl3wIYvuDQmLEcJQUX27V4/NnGjDWSU4XbPnRY7lDKh2e60LiiuODeai9v0KYo3wn5OU/maExemwizyqQxwDbylW+19369YnoV49vqMk205S13XDZSYzN4/Iyym9rRzPZbRAjLf9MMc6hKrIxIHkrKPMGvBoPE3rjKWZ30TUBsu90X010KyyTARLGDudTo8bPoZ5v1QxThH7Xu6l8Lmr3uKsmkw+P3nNNvEEEUbovwTaovdTl4PKerSZjfJYW2lq9MSJn13x16wOh6s6uqesuyRSM4JTN63sD4TDiW1RWfMNiQbBe0i50SPt3sN0SznDTCcfw/VaHkfVBdXllEHP7VqyinIuKdIyWA2pmntjqR8zd5EAMZ1Hbj56eW3UoxoFaV6WNpOl5s1fRdtUxfO2EvGFWe+ety9LXIeyxiwFiBGvt2jQYeBMTiA+4OAf332KaPgYXE1WuVSfTvKW+z64gQ2rfXh40/GywbTT/i+1MHa8GdhVUQFkCLsW44XJJFUI4USVjJBmRo+n9U2I1hivdzntC2KHsYdpwlZV8M6SdBDlX78OcuQ3ELBDOjI/ynPNS7ia1cJfTzRjYwM9jn9OJs7jONS4CR5mhZKaBwHcIuof/X3Iq1hVBYpFqxL7D+V1MToDCuQSKjvnufOYIDPwFojY870cB5WX0y9Xagdth6Y1y5Xka0CQAAoadkqysKwC3sh5LGCTZ+0uS4pW5IArj54aq/mUHWGlsSHRfJKG5j8eUeomecu71Furc+IxMpRSyY7nstRNpSWIHeYq1OtlhZbaSEBe73baWy566hKOGMbcJ97z1O6g2rPNzI8PhMy9YXvwR7mjFu0M+QBlZSo7bmmi5bdUFu7pwchshFV3mX+I0d6RD1GPSSl/UJWXpBJhwDx6vDBSAby5g1YygpoaAXGQtHDxnMX3LiuvYpqQixWeJyVGV0z9gM/Ua3go0FUgTFzgPuDf4B7rPWSp9ZJkwEAec3YqivgebOqHnB74eV8OX+bNsSPUu4eKhScOjyiz9kxopJzHnh7aUfGrudS7bmZz4g2P+KkZfmsGjDA9aoc2QfsmxcAx9GITreVkD37xjwSx/BQdnXzGMJNW79oWNHooGTM9b6P0qlhKkDaxvlsrN9HEQNcffh/a449+vCDUCC4bTy4/EAcnjM+pbVd7x9104+ArDo5xRRVbYG8T0DIDxQh7conkk4cwtfCCjTjm1NPbCXOqQyFrol6Dp4byyjAUTMu3JUY5OhgQuKFAXO5R02QxCrTe3u95o2xJyREXgAk7Dxjezq3bw8ziJ+m0ywfvvv8hfV/+mWusQceWr7T6M+1uwIz8gxzAZ6cvAopJ8TcDMyPRx1fda+saMzKUwEf1ty+EBQtBK0xk8Bgt8mPFBBgFbikLAeABxAH/AA9lzOXlqOMgTGvgPsD//7//v/+o4yBMeyA+wP//v/+//6jQeWBMiiA+4N/oH/9EbZ8yUAAAidz7ycDO1gLGjcurXWNODOi/NXdT5yEh/zVt0vxZbdkXriaF29KO0wJ7mIAAAAAAAAKEFS+fCLfUYGcVxb9dfW6aNhQehvKgGfUdzOKw2xG2IEi4IH+DLxnVin+sU/8S34ThlAbgAABf6oAAAAAEXfCgNn1mVV8wZcvqvxwU1Lu5klTOX4iNM4ExAjD2mI2G6sYl2WNB1C1Ee835vtwMJpaArZujsm8/ubpOnY3h3DtSlu/U4Vd2y876kGSmM5aR90tcmSEBlh/QFMpebEoYuvsCPiGZ9de9LucekAFNujEhHhos1kRW966dqyB8azbF/7jJJVqrwejVTO4b2zZ9YrSGwqx1ZRr4rm7ud4FqB9ER0b3vk8rfbmLzIjld8Tbb5rSsuVuXJFAxpU/pmFJ24z/RHuLsX1CrAgP6HnjWkkGoMB5Kcl+zIIYsEjln1AqzY44uQlnMIvwjopOU5ESJbqVTqpXPgMxr4XC3D86j/p5qhxuCN0A6srYM7hZ06p3qzuDdhbHsWHRCfruLDd4+r4LX+elz3pxX5Fm7MviADJXX1F7v9SwzFEn1YOpYSfpC/iLLwHgpurSOWLlAd5bGxQRFEDyAGbrLeoVsbar1nyDZMCiMqNAoYEyZ4D7g5UCfb8sSB+LJGrSoc7gR8bm4CEcZolcfCX//qNmX+jvOyX1D8cQ0zac0ZAgoeKCOjexbFB9NObrJQI70txIFHw+k9PQRiHUE2ow+AWfOOpUbvIN2XB+EldIkoi6K8T/z4tEAadKKRbkHosYS08rPrKUnedlIOmpI4hmdP1FsOS2VTg6RhiqwFm5Su7iEueR1kSV4UjhtAL//v/+o0EIgTKggPuDAn///mHgLdIJi3hZ2bOw+ZJtL2IWkwlrnvQdPwKPqrOztLypk+evVMVBBdEP0Mpbi49RYOmnM/Nxw4ESwtEFz353kuGNSPI7XhxNU+FJtRqxr3kObrlwBWxbtcupapn8a/LOeuRP34cyekCl1QpBFSlp8/h2UQv6sjOyQDzV4YjTNK19+HpqouhET/5JdCpDmw/shU+nLZmj+Waaj1OfwV60v7aQl3cEGSQZ40hRdMTJQTDh9lh+4e6gNd+kR4a/d2bxgZvrXTjNzISdVxU0qQIkfy3JnwWS2gzSLRffauSJNnk5PjTBfXGsANMMiwRAgAAQCAEAAA/3CA46dlszKaemo0GDgTLcgPsDfeIyXmVtpu4jl0L6jzbOa356+2Wb9UnwFn07+/vBE4Qxt9kfR/NXDM1KnDpTR9BTg/I6dkB5rimgbuiRLId6PLkBq9ArrQqD0PbyJsis29HIAFXL53yxZ51uP37S8Fk+75/ImvCjJEioTauZhx2Ch0bKSHDVsSbmSInz8LSKN3/6aj9dUlj4kQyw91zr4XS8eY2fv8TMbsizks/6GaGUxnbTDBTPubp45MY5fGokMVTvGyFp1leS6AiKvG/Pp7xSB4RkQ4zr15Gb/8Bel7Nyd3rtEyaE+w0MabfQtBoAj5AvrMrARvX1EhGZBObe53PA4FiL/DQaIMX8o2Pwpo5/+TchPGAxXRTYazc54n9RzwbNNQGq7Ws+w6/eaR0cAQzf/CZJEpqx19nhb2m6j9rN2Si5UUBwWDEb4RVnh8+RJ2jKkoTclDKPvA0g94aPGSXflyLeKe1xKT8hhZmMlG0O1qekIIAOe0y7N9iLfjXF/xEgAf0Yxe8nA8PWgoRlo4yBMxiA+wP//v/+//6jjIEzVID7A//+//7//qOMgTOQgPsD//7//v/+o4yBM8yA+wP//v/+//6jjIE0CID7A//+//7//qNBPYE0RID7gwJ///59+IswKvD3nQz2dqgpL5EjZ/nqI3/SPR1hsGe3ukqXNZrXSTlThjOs+U9Cy6RlnvdohF8MNtDj8BPPTto1tAGgLEm+H8uJRFTyutweYiBFN94cwlVOOqciix0DBNuqU0XCLVh45R3ojvx8Nna7kd/nITDJ5ARYV6oLyEofnx0Pe8KmxtebJTczYC+Mq6/CtpaCdPf4N1dE3Qj029Pxh3lApoGESr4Rhuwn4Bozddzp3IcPCDLmRUPN7gzKlneNNK/6qHjkyI/Op6sRO5bx3fkbLh+JiKRAqsF+jXgfxu49WKsFW2jZytAZc3AE9PPklQql03OXJ1VFtCF2vMU48UqDi5zKbfn26LkZ4O6729QHY6djqZMVgL/cXw6QtsFDgxUlw3XO1oR+zl5RVw000wu2SA8ao4yBNICA+wP//v/+//6jQQiBNLyA+4MCf//+b+2DUqdeti+UcR8k7wrEcICaOeuEfkpWAM529Cn7o2mxbQnFEqoFGoxJHfAY8YBkcem5cPaWBaE3b3kOfTwqampBiadHhPQxkEJGsH+1IbW2rdzqDr39n2LdF9eCxeGlmU2fRin2fGlz6zKEIooKK3QY/doFl0lPhCLw0Ocpz334rZuNgiOlOxytLR61gyR/y1kIBdAbl34kvsslZPwmZ57ifVfvXv6AYD6rAaBWj+cU/l6qARFPG9D4uykWYlEVt1AgsEU1Mfn32DEi70GqdsG8uXMtNvZxBnZmjg6Ay3SM1jeCcL4F+8qn7wlt+Lh2GqlBH8JAI49UxRe4ygCjQIuBNPmA+4N/An3tno9qVL5yx6npS3rlBy/opuxL4Uu6HwfsIPImpE6jQY47eLlKIs56M4TenrGpDKeDF1RtaoytHpIaJevvPTz0ZLEo3/RIWjD5Q1DpEXIAYtqpi1a430UCwObIYulNtwDjojkr5Ee8kOa9d8WooytiR+g54bKj2GemUNr/jIX//v/+o4yBNTSA+wP//v/+//6jjIE1cYD7A//+//7//qOMgTWsgPsD//7//v/+o4yBNemA+wP//v/+//6jQJqBNiWA+4MCAv/+//59vGoPLhLMy4nFADpTJmt/JZelP3oQnG6ZHnf5A6qriEhflQpm+KpGMnUh7O/RASU6JJ0VWwevvfum0yKajEVFEN/npLZ5lAZkdYWi7x3CUVQB7da1FrT4bIoD/yQSyzypm0tgwrpP6wjRHUcfCD2Hv9DKanyidAcNJgyFwCnUJZbyZ+4yjz68iiqAoC+ho0CSgTZhgPuDhgJ/82mUS6LAosb7MLHn8Byn+/0ZH0IIAn0WQcSLpk4mX7jQereoG+scNPLBz8Q/FkBcUGjglJpOyRYiia9d1OaIF5OQB4ibVJhZ/rinDytE3HJPYdMZW6DuNBNSn+Oe2CzYhOPV1dQq2Y7L679DNQNx0AF9s2AAAIAB30IBkI/AApTCRAaeVv/+//6jjIE2nID7A//+//7//qNAi4E22ID7g38Cffo3wdlQBKZb8AAiv0cjQvitUvSoidRhaPxsO5q3ZShOi3Vcvp/DcQRfJd62H0PEBjcUgWabGXGbcyamb39Ou62PjhiA/ZqsU0eCjhTnl2WmVPXQOa1W56WYlILllh24HOVrlZYbu8d09Y6QdF+PWKBAXpEF+Lddj6i32Wjunf/+//6jQQiBNxSA+4N/f334vjGqQjsfsK918OfD7l6gv+gSaR9X3YeeBlmHfjq4Mo4ZPWJOCVdSf/oOdz7H5uDdgQBWjpd3M+FWD5gl9u+OLs0UcMQj4oVMb28yp5/okmWj0TnZSbZ81IfuEaKjJ/n8SN1pb8JaBoqWMM2w04Kk//7ajZ3nUb+R6aIkLOZ98Bzqo+hi2/Cuhs7YjbptYZ6hByaa9xxX4tsuhiKDs8CVMsHFldhjbdOnQmi89c2x4RsUSEwnkf4pq6lSofsoIfZ4luJ1PEiOImtSVFqUHuuzdpHCIxsJv8fYpReSE01rZnlvABLNihWYreUEfgAADB7x7ya4gAAK81U4rDD9//6jjIE3UID7A//+//7//qOMgTeMgPsD//7//v/+o4yBN8iA+wP//v/+//6jQIuBOASA+4N/An31L0dJndJ9QX1B8GfreMcubd57JUEff6/OvDBcddgyhs+pFwzROPC/vHg16WmcHpLeA4ESDcIEgarz5p/iD5SIxhP53BAr7elhd4++ZrCabhQW7GnJ5mNKtpUqqPZMSnxGd9J6eZV08yqHpHnxlbKmd3yALY0z36r1P6jhxs///v/+o4yBOECA+wP//v/+//6jjIE4fID7A//+//7//qOMgTi4gPsD//7//v/+o4yBOPSA+wP//v/+//6jjIE5MID7A//+//7//qOMgTlsgPsD//7//v/+o0EIgTmogPuDAn///mHlKLgIBectlv8UGWjhwM0mzkG6LUA7KN3BqbMheE1XYM/ip/gt11zhbTKHZH2X1Hb+jqv1vC+R987TPgV9nEDtgR4b9ywZ4gZ0ohUnNyuT8ZdqKLNE+m+bogoggngF3vEpMRpQFVpVwlZLx8RyeksWyollHRQFuHOgwU9zONxv6CNmKz/M9zTe2346Sxv/DnAUS7R5zdqPy0hzG537vc/x85L+da6O8otJoityPEtikxKVcUwRoZp6qA7e3YGY8fxu9p42BhtUV9oL5nnGPEK73ed+S5Q5Bru2EcMw9FbZQZO74MwARy6H65Fcr6v2V5TlOjvW06134OrA1cGIo4yBOeSA+wP//v/+//6jQgWBOiCA+4PKtH/tq2VaKqGEndTESdjLspViH9In0yq2Gj0QyN7oLH/SURubyKGoDOwp4Ggw7XYZcY9JeWwBeknfQQsImQXdSrXy+W3l76qoraXvTdy7jNAb/7T57lKNhSQ65qTj3sM67L54+fSoVbveDTm65EW0SEGx/PIdzfezQ2+K65iPTcbOZjGD+YkO77AalXZeLRfJttVL2kr8WafjIJzOoozIp4VP3GYAvBT9CauWNdgmosk5Z1dBhM7T2dsWMzUi1O006lSy3IZcasrCbpx9ad6nzcH8fcplchnEQSe7JOuyq/7EgrG4ITEqoJESRziNKIUZX2s/1G2DyQuSKTRQgKriZjkOraRHoYNrR7tKuchFVwB5jUv48gWao7gmuWTRpt2DdDpjCaTO/x5xKeVcUOVqLI9B/Ux/0rfjRidPxENSfvEbWPE4KQ+UfCz27TenveRCbuYl/jwI/X0i03ajVYz0ekkCmG2eCQx+9Y5Y3dmtCEj8FkcrXgEP8SVBEQOtngx93yZdL6ZNbbM+UiuW/gE7rcWEu2n9O11nMj1QRtJo3GEd4hN1a3lSalj/zH1ClYPLqPDoR5rY4SK6wvG1Wl0BYEK9gi/ynnsvBwOMQy6hX1iYuMjLTP8vH8ztENK0vVqQ00BHG17UAQvgSJPWtYJFltCgR6X5k7CS1apw08SBo4yBOlyA+wP//v/+//6jjIE6mID7A//+//7//qOMgTrVgPsD//7//v/+o4yBOxGA+wP//v/+//6jjIE7TID7A//+//7//qOMgTuJgPsD//7//v/+o4yBO8SA+wP//v/+//6jjIE8AID7A//+//7//qOMgTw8gPsD//7//v/+o4yBPHiA+wP//v/+//6jjIE8tID7A//+//7//qOMgTzwgPsD//7//v/+o4yBPSyA+wP//v/+//6jjIE9aID7A//+//7//qOMgT2kgPsD//7//v/+o0EIgT3ggPuDf399+RpR7ftzrgoJii++92u3vyrLPvY5SAErSogCguCmH/483GD1AND/UVHKalnlZoraeGLyjkofwA6CQBGwAWeLr6X0YQ4mW1kzoRZ8KrooV7fdEvcg2iZgB0sBMkMJBighgTohGxkQieDq7LrSb4G7JelpKzKVl82CtvmSVUX9fe+vttJ0PVG6l4e24K/A9vhq+PcrTjgoSMi38zLSmFV43Xjl9/Te4J22t/sRfX/NBdRLHVaSGtBaQ9LVzG7fuZpvo/RyD1f0A1S9CnLKNGFi89RQr1lmY698n55Qi7bQVmBF2yqpi+Eu12Lslskxd9IaJr4gQU7bZTpt0wwxy//+o4yBPh2A+wP//v/+//6jjIE+WID7A//+//7//qOMgT6UgPsD//7//v/+o4yBPtCA+wP//v/+//6jjIE/DID7A//+//7//qOMgT9IgPsD//7//v/+o4yBP4SA+wP//v/+//6jQYOBP8CA+wN/+PVH7INjjpxYIpZFTHdiNWG5fLCJyact82zI4uqWy5pp+swjn81YJNc+MXmIS77pbQEQns0RtylzOAAAAAAUtj5DTSPb3O6/KWhukfLUEdzoGcrUJbZy1mfvuLgfiZdMFoDhTiO1HEdpE4ZaG43F/3+p+EXCLhF0BXnhSafcYbp8kJSzhljczRFRnVV617y32NpqM9+tTxrbSzUfLPeRMpyGLqNx1eK43ChvrmBMVfYKyLYbs9ukSBRiIQ7mM2ixNzuWQBnihHTrs0z4HUrXGmpZL2mbIN+dmkIwHMSO77gTJK5ZU2CGrAlbHMUhDlzM2VObcHHI9AHcAdmAZn31X2Nc+NzunPQg/YzrO4RrRJKayo/atRkgbdlNVg36lJ/E+YSik9NC/bTnL1lqHmmulvmzCDix0bBqnfhZ8ruKgMBH9bf8Jt99SDeEL65Q+O4X6wg73UoZi1A2RerOMmk4NOW0icIr91bS6PBtkylGc84yjI8GEw91ptF5dIyjQMuBP/yA+4MCAv/+//59AY8LV/B0ZVWQmcSYfi1nBJ1g7XR+bOy794x84p0RznhZ0uT2f+nrdDxbmuDqEGKNXrpvz94GnicbC/y/3OIPNLY3jkeLl1pl5f+FkMRMWYCmJhwCKryWPGL1nlEMFcF/Vqe3VJhMDSkru923/7LX/AgSIUv1PZsnOtf16RFHgRolLh8lrKNerrrrkn1yz+zd9KUYdRk1tuss4u+FKFHnaIMhPeTGjlpYzyplmrrshob2tQNaLO0v8asuXL8uPqNBloFAOYD7g6SbWzOVH1y7EMjI3MKoW9GNBdQX6V1y8okGtNkwhZZU7VQi4gl3Qu9/VZN7VDV6l6uwaYbVFpZoHB/0WvITMbUc1puVJ1axeylM5GvNpvEDB0RA6Fd9RBZ4RLA9Cxlsouhjy05l9BkSzRsi/SD6PiEm5NKyBsJD4lNREPqQkycYgcwfE7ozSF5Lugnmm9TzABbzL117MBqwPnGMDMvxmflJTlAQDPF8wjCJ39QUCZfP5lwENN2V0rPbbHt3eyzySxp1B6rjXSI917PZgABVofq6kIsUCc+jX1td4W7wyX9Y3n8LmXsjn2HokiDgbFMUxz730g4cyW5FblfobCxiRaYwKSu1Fz6RNe09WAcI1YkYc2DIeZj5HiDCGOIf0j2G5yu3HTVsiMj2GUBEnrfZ1QjQX/hgz/pzRY34PcZi0CG7eH/5Jyi/qvrNl+PTooa2dlQneLrpBv/h2TbnoyaUq9qjfhS1WTYkeVEla+E5gynp3JKy6OlkZOswlksPDHZdRkEZMrdf5r3sWNYrKPLKfxejQbeBQHSA+4NVpX31ZUOs8u4gCay1UAzciM3k+eloQazNcYi++5P9B66iy07ENs9szYeZRlB0yPpBfh7VZ2rxk1Hc6rG0eTYmPFwQGt/g6KMQ8mE9FFD9/t9wOY3up4N9CeOXR+fu+6hPa+pFuOt8DUsJ6Ks+tunxyDKuPGmZ8peQxLBPO2STZfTct6jYY3WWuMdsYZWThKKBbnnEXnUziSzOgxoBhpDDIOw9tP8xsjr9Amb+28lUQ2lJ1KEz23boQiVTbynUzZGzJna3+MqTgo85YUVkN/kmmSXVi+sOvf7geNGpLOOHEKKnFrbxo08l3UQxj87oY8cp5OhrmlSH6oFVlPN9gpaCj0GC3PwJta7TLyWK7njR92AlnjUvF4wS8CfrCeHAupkxNDPW+jagMzcp0LfmmYk08OiaKq08wkIgubf46xPK1tOmYpeXD0n3U4rQk7E1Mi2bhmdmxZ11wA94aThRCv8MxYbqzGC6gdNOx/MD5vVuQEbVFdlPytuiU59m4HQCyPu0jVg8xV5nHVm4AuXiPlBgtMPB4ObtFuqjYyM4AX63gcn4/qQUvCigft38VKE88Rfho0FagUCxgPuDU3J/+6+n8Wq1eQjoByz0n19Z1MppKOFmidS0e6ande5EQ03gg4sEgN9dHdgNiI+dxPfAvBmXGYc0Wygf6t9lFk60Lj7c7cERYnLAM1/MC/JJswNvAn3uXHAndmbzBLCXO11SIZZpuWW2vEOkxuX+febG54VadMNSaqz8+NBSdT8rN38h6CGkmbfQKpnAmlevgVmN8bjH/ZDfdqsdQmdt83GXKQ/tUzlvsm/4euUUAgK6Hn4R86YDjcymwnUUk3J3A0uUZvk5O33tOMRvLHtFQ0i4dEFlYRca9uxy/dQss6YndgjZbw5AuFZa2MRuDciJj1jqinYrrUWx6Q1uE/uiMjDV5t84Aa1H7WPDmTOuAl934Ht2FK5FC4p64Ps+nc6TxFujxnUYXATVmsU/KY4rGjE3h8TyWaJt8G0Rf68O5hpxb+v04JvQiARjCW6OJIYO2GipW6PagUDsgPuDTgJ9+9KNQj9gIktC4uHJJ271q2WEPhuEDahtSQdFwYMYRdiiwlzAuEv2T3tl3eJOj8zqAtO+VcQYe54SfZ3XLmmikLAHgAcQAAAAUZC1FI7//v/+o4yBQSiA+wP//v/+//6jjIFBZID7A//+//7//qOMgUGggPsD//7//v/+o4yBQdyA+wP//v/+//6jjIFCGID7A//+//7//qNAi4FCVYD7gwIC//7//n3t20cg51nCDGTtS51rC3nX6sm8sHPYmRuFRW+CIvhch/sny/rid0glLb6sZMDSKrCWK329BRjvNXSK+Dd+PzqaY8iPLAaigmgq55yv3w/o8k3gz5zvAkkS6FeMi2cXn5gtZfp2Sm8YZe9fqpWxBuyigaEAFJ90Mlfqx7Mt5FmjQQiBQpCA+4MCf//+ffUvLxS29D4tjT+IS56vrjzgnXTuFVk5fAzwMSi5wMBFINGY15vyxNpRq2VyXVO2qzAiqaRR0u8+CcT/YB3AxCKEhIexGamU++YSpDOTTAamdmktUduo66jPnqLko4UroVXKEnFAcBr9112JNzCTO472UatXbZVsKeWGjN0iJn3194EDKgk36ZYmLnJf6fZ/QSWk4Z/hfjF38Mq7GpkyBpGUuP/0203CFshGXofqQnckrWtIK6DkzDnValjmG3IHPs/QUV+S777B+RfMGywEnvkf315M0YO6mU1JEl6pXKkjLEzyuRKlaLj+BkXbb8+eydWEsqEZCaS+gHaK/NGjjIFCzID7A//+//7//qOMgUMIgPsD//7//v/+o0CLgUNEgPuDAgL//v/+f/yBpw35yRllI9J4BliRugjGn8IGZzsXrVfjwo/smr9FLTvlIiqPUE8Oe7QEZmmA64aMgQuFadIcWNAAAAAAAMUB1rNRu2YSWB7XSnLuCv/KWjM5aB+HRP+mymnTKv0y8UHndAYj0xxHaROTSht9vf9/qfgAAjARiKNj2a+Jg6NBCIFDgID7g39/f/z6eORUkUDV4xRVh2+mmCTjLXMeH7mtAMgXYpNttkxYjp390YVCjEw4y4Qmcdxftk3QvmMAAAAAAAECWZ6z7jmsQZyrhf4ekgUbJB4Lx61lAwBPMNLeuLnTwiJimT+BDOKK44z4ICLnkB68Zn/gAAABAAGfgABn7kK79spX5X3tq6OgrU3Bebvd6tcjoBKFa4+q1VArPsoujQoC3j8NtBVZwuodiU+bL0sqLxXXSOUADLKVpFKykapYaSjyraIIkdzcrzUgwnJpj8AvDAC4aYGsIYYFk/TxLXpPn9fKDskaXtPW0P1xbVU9fUQDQcAIId/jTvcIaAwtoSb0ScP//qOMgUO8gPsD//7//v/+o4yBQ/iA+wP//v/+//6jQQiBRDSA+4MCf//+f/qz3wzdKZXbHF6FHwhzielnINuCOBJxu8pKZ/Kbq4CEfgJo/Etl3Gst8E1FWTj7Dm2OVdCopZWJeKYAAAAAAAAAAAAAAAAAAAAApckFrulVLpWLAzLfmh9YEbQbg5v/u1+sU+7G0i2Nori4IA2+4wC/1P1QAjAReMEVY602mWHpANQYrrGnxJ4AAAAAMQkm0ABK25bk17zzIs2+t9zsaGClcpNb84+n8H45vjx6wAAAAAAAAAAAAAAAAAAAAAAAAAAAAAAAAAAAAAAAAAAAAAAAAAAAAAAAAAAAAAAAAAAAAAAAAAAAAAAAAAAAAAAAAAAAAAAAAN9SVmaM8vyjjIFEcID7A//+//7//qOMgUSsgPsD//7//v/+o4yBROiA+wP//v/+//6jjIFFJID7A//+//7//qOMgUVhgPsD//7//v/+o4yBRZyA+wP//v/+//6jQIuBRdiA+4N/An34WwJes8p8fKHyoGnI5FZEF9Vk/THhZXMnY3+lpwmuAbUDEBaMDXeKRNdepgMlecg+zx9Fi+ZFVJ6PDK+fdYMozc6vhqN16cUYwPjTqDKD0p2l8vNAMF59TBywQQcWJjzFt0RTdpWYB5l8SPcDvGP5/EXnb9OIQWnzf2jExUL//v/+o4yBRhSA+wP//v/+//6jjIFGUID7A//+//7//qOMgUaMgPsD//7//v/+o4yBRsiA+wP//v/+//6jjIFHBID7A//+//7//qNAi4FHQID7gwIC//7//n/5AY7AfHiOgipFrn8sKqrjX3i7TvEqyIzfefzx5LZkmmo1PeEYafEBjumiEjPIjxDllH87sAhYskrox0v4NmCqH/vKq75/ceav3eNXadulQL4CfzwPNCJsou3eik+5CqzB68CQATToYlej1QFxv1IUhcgo//vK2108nXCGNcyjQIuBR3yA+4MCAv/+//59+MPFDaqKna58QhaG6u8K3w8ThJCa2OERMJhuoHdcti66CJB2sGHpo6plSmLAy403I3eBIBGy7xZ+rVdjuq/keHyIGiozacN+LvPhBG+yTg5hwhDALbYM/tYEXbrQa9nbuuQVJ7FFj19JvccIMplXAcGpBBaglQW+IFCiOGaXo0EIgUe4gPuDAn///n3eYfBfhBeW9sg4iXFttaiOMCpwQhfYF0FKpEZumZAf0NBiLgWhC9yTDh/nosymxFezVgPBG/wObGKAglH98aGO69oqSBSxZt+tO0JAkoZfbVLqLc5vXxWPBXPontslbo5lttWv7ToqSXBmMKiYYmOaOwPyNgb6NeCfxsBjChh97eKvOFKScwXzs0Xvr8X5qXBoU+8UxXaeor2PvP5IhOpDYrboAbqFNjUprr8J3001iUpJievQbRad8V64TUQkisrOJHZUaU6MgXPPYcuv1eezfcZOnSTmetN7F6Un4aoZSd5Lb3hsdYpqFZGhsxSUZZK2vPS3/lGOWFfPL6Yso0CLgUf0gPuDfwJ99G4kAHIWe/csyFyvt1TzA0vYJtgqfmoHUenFlj5MrRhFiKCkEfl9J8KpJK+U02N8UPFGP0ztNSkv02jj2OvYRt3KVRyjcT+nUL6mcdDyuf0d1uUKiQrpXKcCJlScfU6RXly4hD4MxciOuPg0rK/cc4hvu9e/939Xf9H3v8Tb//7//qOMgUgwgPsD//7//v/+o0CLgUhsgPuDfwJ976fWrkx49axbhTXj+4ftK9MeGsM2Wqyj5POAJZXYOlzGJ7jCi5wA3tJg91LCBMLLDDh/xitoxUabuQk6HXNRDHAz7cOWDNMlGxzp9GoagpRDMacImsgBdSBAeLzMKlK908cmVp2AixbuzIvdfR08yx1WhVnCiCXPKFts9nEQ//7//qOMgUiogPsD//7//v/+o4yBSOSA+wP//v/+//6jjIFJIID7A//+//7//qOMgUlcgPsD//7//v/+o4yBSZiA+wP//v/+//6jjIFJ1ID7A//+//7//qOMgUoQgPsD//7//v/+o4yBSkyA+wP//v/+//6jjIFKiID7A//+//7//qNAi4FKxID7g38Cfe3abdALTZG/J+q6/TZzrxh0Xt+JJNoyERlpfi7f/o43F9G+kdZvjpnkuPiQnsiNqR0CaZSKdv7mu/OYnNmlpradGz9y9V4jWBfJVdDQPPHlb3KPi9RAj/yxWr9J3eATmALFNQPv5D9IwGCpfxL3gRFv3sGRq4Bch/ItcRW1Z//+//6jjIFLAID7A//+//7//qOMgUs8gPsD//7//v/+o0IGgUt4gPuDtsV9u5ZWV9qXJRBn6oCkiyyiHj5Az1t+55VzDe9lDf1rGcMl9czzZBuvM6i7KJc0G4aa6oVnihNYRto6nuRZlDsDh3ZovUwamyOWVhhbrN+xMMK0m2SC6DcnIDMNC7LF/t29cErVRt0ocKhhzWvMa4rMJ+yI03Xahg25lZZdrdHi59lPRIZ4qq6ppatPlItwt1ZeTGMttYn5yl+hmyw2PILZ/4Rp1zOnEWuCGA7Af2EsBCoEtfcPDn0KNdeZPjnT4DRlwS6OROvOIlxNoBNeKZnQkzpzctMrqr2YH3qmQQ55/XVUlTPVIIRfWCtTx9l47ZMKTfZspiZ39uS+65CDMWId5LM5en3CnwgnVspMohS5BiSXVoTLsng1nNpnscFRDKfWcPTJfAeXTp6Nq97WhsxH4dHOVEC7XLhTmUfdgnS5BuVrrm7YiIbUz9MCzslDjCQyw6ZS1yO/xjqmnSKC7wtNnYk9QXQ1LwABX3IbCLLIumYqVkwUiq6vEh5eXo5TBz88QujCTDNFv2IPSmO/hw41cgDBvOZtIt6Vn6Oa2hT6lHN8wnG3uDnMBPdKxBssprb1qFelWpVX9SVoLthVF8nbocCMsojWMLnkmywKZDtWAjdox0HScGXhrS94lO4FxXbOoa9XaBSX79+pj3MpPDfKPqN1w0x3/SzHT9xCEvOjQQmBS7SA+4N/gEQXHtK9ZZeWsMyRsp3eOSiUVo1qCBv5zxvKByzH8lCg4p9AoocxK9pjpBzoUrXp5xY9WJOA5jGfw0r7pgJB13COBu/ctE4uU9nUmqbiStnn0jDkdnGeh5/8xY4r8Fcweqg2yS77DvMWoEm/ITgqy269jfAAgSaKJKpZENe930x9vkjSGiY5/gdmC5bN2kJZKmBq+cQQ0/33ZEPhLr0l9iaXqrYaWoMX48ZvjcX0GwtXvdFe2VqJpmm1WhPtmzHea9YAd2mc+/t4DJe7nO0esOZdtfhXdAW/o9Byko4vnNGHJxlm9FN+fHtiaapjAP82BIAOAAKOV7yAACtOaPcJIP/+o4yBS/CA+wP//v/+//6jQQiBTCyA+4MCf//+feI2PUn31J+GfBEB4229WbiF3LnF0GVEcOFwOEmtkL/533UdmL4tYEOSYHO4uw0BcsdRucucwxmkYDWVULK+vF6mKVETjEBysJTtB3h9I7zbD6pwGYddrBY6kLEVRyFcb/Kc65j7bLEVPuKajYxOjlRxorXSDOhr26aMgGe8dH3t2qGymOJs2Ueyt0ZvOQ3JliRAE23KGTQxaEZtQ4rBQZ9GalA0o7ag4ri+a0mZtiuujuliWff4BFoAx0rxx3ipwdmrVG8tFJZEMYAFYfozGR8yG75C+AbbIZ4tomFPlCgepYFlpAFRiFIQTpYve84DazJR6Wv0pdjrWiru5sSjQIuBTGiA+4N/An3sfCCY0M20ylwX5doNk0MKw2XnBB6Rra34QcZoJZfM08Ci3LAKsRtn2Tl5UAnRypBmX8pMjBHJGIYIWt1z0Pff5N2ddkX3Hrmwiwi34V/ZuzQJmSlWPVP/fXevY6GOUJMLX2MrdaLtPPXLD9kTRacn5mmayC9p/YHaardfAY///v/+o0GDgUylgPsDf/up7eGWzofzWpdEOCtf1lXxpSUtcT3RGjLX73tBqGxG8oQ9GyqNnMYUbiP52JEUr12xblgAAAAA1PawoiRyZSFT/VMrANTQZYEzQKj0WNUUJ6julkE/ouCCQaxtHXwZeOPzugMR6Y5RZIVOM/2+4wC/1P1Pwi4RdlDh7o7/oX/6xnAEGkQ58iECm3S2vYJUX0PxIX2wJz0VDD9VkMcNv64PAZLtD9giraRei/zUINw3MIPBairAAAAAAAAU+aTCoQjQQcTyHP+mfsP3GGzO0yc9JJaYatREeOmMjYTTTXrFIrjjPggM4Q1oyusQB/wAAEADvEZ+AAngICldsTN9763tVlLW9heEWc1oHokC+KYBoIkhocVyMwG+ulGPv1dbd6MuvTVcXahdGxQIQjQh5pmrzzqt+qERsxrfjkJqF8pJLo8H2rt5U/Z6FsELrJP+9XbeFgegFiTXiMCZhCU8qjoxsZbuX8MQ+mDSoDeLpmznayVz5CRa65bbm7w8o0CLgUzhgPuDAgL//v/+f/yTd095vpzrnO+/Fy9uoWDKT0FwRXbSPX1JnVBZmC+jKMXkBSeI3f/RXuymAGz9Zj51BOaIAAAAAABXRPm162uYe842CaUAkkvLhQmbOWjo9R3azcy/DRy4NFwPfM6LggfngLvE0QflAROGWhuNvf9/qfhFwAARhP/5gz58G6NAi4FNHID7g38CffpUQjHHznKuKq0Sas1RxQg7bx2xbwBDShY5fD8iNYmkLToabHEHhlsb9DRBAV//DtR52pXAAAAAAAC77cEKeh7ie7nnlwuG+pNrlyhtJaNlAkSeV3x+bw6S44bKgB/bjxQqFU93cwxQquABKx/wAAIAgADPwAAz95o/CphBDf/+//6jjIFNWID7A//+//7//qNBfIFNlID7g7y2fbomOmTlQ8pG0vGSMwylJevMdcILQIgTiaXrL4tMsrcfCEu4AVrSpJ+SqMJAwwe+3Cf5yvsp4Nu7Hue9obH+rlrxntA8WO6hVJRZxr2OG1UA5U9ohqQZwhEKKffOYZQtdXIetCK3y/5TIUQqs4skgfwIVoPATflLiloWyvjxWXtDgrEU08kbzs8UrDx7nrXRPJNqwXA0cOlyuBs/tN6+TCy5XV66McG5NVvwsaI6g/2q0nnhtcZpjKEh0a19BAIWlJx2d0nNzoXRMS/ph58h0Sd1Fu7T6mSJGj0rPlBFYx9beNmP2Xb35mgSFQFzNHwaOqF69DeJeiRLPr72Qw3fB/flRGSST7BAR8rN3BmsEgsFput8mkCgiryWL/H0d/dCAR2W2lJ0UJOqLmcNQ7Jxf+DZwls5qwcPrlqo8C/4/5+3crZmMIbGrbj3OpTt8ivGwfKiP+XyT+TV21YZwy/VAlRvPZlEGjZmW8KCYNSBlat/LP/+o4yBTdCA+wP//v/+//6jjIFODID7A//+//7//qOMgU5IgPsD//7//v/+o4yBToSA+wP//v/+//6jjIFOwID7A//+//7//qOMgU78gPsD//7//v/+o4yBTziA+wP//v/+//6jQI6BT3SA+4MCAv/+//593n5NVoKDnUg39OScDOOvXW8Xqy0H2k8dWMclgXJR8qwK4JZp3n6TcMTkH7Fxd2F3R8WqJP7hO1ZdojikZssw1QUeRJVNQFysxtbj3O7Sn57n5SbAlZrO2r5vkLyuW0kVDm4VznFxxSYywXfbXwSLjumPqcE9Rwp/g8sE5faRBglpo0GSgU+wgPuDpZZ5Bvb7r3nv6E+xgLQpMJez2D7t7pYCWNfP21n6V6GBwBKpGgU3fnrRyyzVFC1W9TW4Zc4aQbXyNN7eGXoq4336CLNsw77IZaw/prfBWDSk/PQdtAygNErdk5eqbzVCWniNfpIufLYNOI+FrNgsAM4Q9oH2WCuCVMXgm9XnbfirxGTQBij2HthJWKaFm7OWD2WHOAWQJgft3gW3ascqf6TAK18Ty8leYFDernV62/8/gdx/TzoTbYKlcD50EYY0P00779/dQ2Fmz9brZadfVmVtgApmwE2GxYuomsZFIjxsCuqRh3oeno9tWhL7SF7Van4ZwsEEbEkim1YRUMTgGuEnYw5u/8Ioq7reh43a3Lr7q5r0uFRfE4h/HcWjmUWrNHhguyL3WGv4Ep82fJA/xrYQB3Q/4qrD71Hyu4V//H6qGqMw4wIXjAAAABOYtHwUgf1CNOsVmVfM7ux495FAcQXE+cQcDISh2Xri4KWeb/7lqvt+CPpBQdpo8RC5e2rgHgAAAAAAAe7DN0tpo4yBT+yA+wP//v/+//6jQIuBUCiA+4MCAv/+//598AW1oG7YXO4zt8+8skTIIZx59z3CXm3+HAB9J9sunVbnhiLfuqF7Yw07GZJMjXhyhBBhhpR4buTPDEIpd10L3WenrhcS+L2VYIvrw7v/Ft/sGuY9gcP/zARSuf+eHVhOdrToqcaOQzdXFF4xo+rY2C1eT4rJKpeyZyv1/mqwo4yBUGSA+wP//v/+//6jQQiBUKCA+4N/f33vrZi/Hi3UHzI3RvwgLI2fFvFwerLfZQg1vL9I/H8fy1VS9YRP6EROlUgFvt1Bj9mTM5t8PGfWwhIl6bg05fhIdJU6pkZCt4IGFk+WRyquSKCw3sRaIr1wVBI3MpmYSzD35dwnvrVTh+Zs57SxIRVZhUKxgEeEAHAix+bA/vR/+kHxjLsi5eXu6FzYDgGrlMWLrAWdcBye2zuH43YG3eShGDJho2PM7bhB5PeASsPtOqhQRgAAAAADl5UIUvZsG6/kzoeaRUSnKD2ZYEBS+di2MBme5boAI/lfqQ8AAcgoOMH4BjR4GV1iAAGB/wAAAQBAB3iAAGfj5JheYOUz//6jjIFQ3ID7A//+//7//qOMgVEagPsD//7//v/+o0EIgVFUgPuDAn///n/8c1+54ivyq4p7iql/qHSIUWicd0aEWJDaEWJE/MJbU2dg+PHS+w7CsqYK4kH/z0QbK7S2Cr2HGAfZjpOGMAAAAAAku+waVhkjhL+pQij0jUD0X/y9R3hIB3I4y2pdVsGEIbdhHKcIBcSwcvpEcnWb3AJn3tat9z363MZIA7Z99JiFLEr7J8fQSjwh+TdLFIZ4hJ2eePCiLobVMDdJkf2URwqg9BdKNuEgvmkk/7Xq+RuV2LZrawElD2hP4yPgn8WEeIvQ+rBJCzDRqO50KPaHdrZ7uXdL/qXqUpbl6xcBh44H4dJxj1vT0G3f9vxcAv9TAIoEXCMdxiAAS7cXo0IGgVGQgPuDsah4/KzoLYdRkckLUL1m3w2ytNHSJbNwJW5YqK97or8Ciwr/dFr37fyQJ3vi0EqU1LPUAL4OPCwmVaEpYPixze52QC2DbZ/fvHoDHTXr6RZOhXks9UA4Z6pXuhvmjf4UyFVO0f5lwLZ9KQUn/2jTvL0f/f/QKYD1Pe56pgpvI4N2JL2aj4tBWQm7ii8Wx3D9ZjG+mMYm/9raJKziUQ2OrfqAKu2FZGOKE+l2L2iLnDh1MgIMDc+8HD+V9Ro9TqUFa+ctSNpzpowjgY2f5wygLmt22KzE6u+0qWbvAIxYnr9k3a6DNDL8+FbgKJSTIWmn9tTDG2dfx6zJhOzO+jX10bjTGdQaKYiI0nnU/b3hkp3FxXtC6aQyWkeWlkp6JTtbEA8X7tCfy6ScW5Xwphw2wyiBLfzqws76bHNci/CgsZFqPALD0PXHqtruTSr1Th6k6XskymlmIHuTAR8/TPPWf0wzT4Voh3nFC+1JUWC+FQtfnvcLSn32JN9N+Nur3OTeZTCL96rRFmNNn4TRW2S1A/Y77PN9zJ0jF1b5i6zY8xDg+ko//PRV5SX9Z3hfKgJ89g5lGyU0LduY/ntyLz22GT1zYQpxF05gIdnJmQgu14DmZA2GfovFQfzZm1u6OzGuJTy6UZ1vRrsIeca8+3arWhNa4/pNF+iakuEoCWpf8y+jQYaBUcyA+4N/gHznpn2/NeDsZ0M0xJAevi7iiPTkmBcELljMqPF6+LSt/mCALR87xRwmvDhGiVLf+6oBW1UsAjUxOxL/l464AiiAE3YBINj7kjcyxFRmaK1TZgWoNHuomZOkD6w/j38T1d9EZlgApdIW1ZP+Cmnyenbr8mDG7Nj92uA1RAu0WjJ97Xk7LarQDcpGpVO5hr7nXbJPmMc8orgvBCQSb6IHZPp8B+r45kVzEBF54G6QkhJylob6QxrDxyP2snenl1Imt1bzDNJ6J0YuAcb90/bmTCOwWp8+Op3etZQ2x7NL20N9LC9CEEIxv8WVONAM+eWNFUJgTjzjlP7H1OMJGkSQlH2+BPTQH8E1pQVi1Eh1hbIa4JbesFLagT/mJx7Fa4DM8T4RUUnigqPT50BScTVQZF+Kh5W5NYEee7FmCIHfHvMpaG7q/8TWnqokCLBJp7TCBQ0l96ZVMmHawmThK4aNBY91z3FFj6IrPrwXAjoKZX1EThV9N8A3Eo7IYiEr2b2jQYeBUgiA+4OAf9/I3UyF4wIlVjOPmmuCBUxlhuphelsUu0wLzXjhuGGt5MWt+Dpda2FLH8nhDdf7cyJdVGG/HgoTQAWerVfzFupYjWG3gkSlZiYKz3eRfpeDo1DgT7LExJZXqIjx3F48+gSaiUvHFnKGBLoMpH4SMmyhAIgl4zW4o5Xf4SvLPtm7UnJHBvr7XR5FPb8i92kEJg4Bn6ZFlc9cMN+w33KHT9abJWg7HVDaZ5jUR5vt+/KP3+9qsW1GIRLu8HrGnGZlCB90UnclnqfiNyflCkEsvIKrHJTY2HFHLyLDEfx1x7bpJEAsklrEK86e+2NPYb2iceTxYQxVgAOdW70Fce/PqXnDwuEUgIrgRFJpfzlBSeY55JT+IFB4aaBa+zIypA97nYR5wW55Swvh/HzwlijS84Q2CS5XzvYbHt6pJd6+szeHCc3pQjCSs0ZKlm8yqXTiy5ZIXVCeyUa1SrFrekVlF/OSO5XbQDjHLlCBZku3+RWEUhVxabpHk+nqqNYxLDV2o0GGgVJEgPuDf4Bab+7J09vJakXokJyAs93shq/RD0PdvFo6UEXMeaAyn0rICoPZ+44tqWpOo+KLOkU1zhYK+qTCR3hSwLqTW5+1wWIr7q4fgTZETUL5WcEQBrTkra8uNg2uuHoZPkM/3mS2iey6nVaB8NVN9Lw+p/eaxJhzcevGyz3KGeMrEy2yUG2kv4raP4dm0oEZBjtvgz6a9gVld2sfDx/zqRIfup4JViFXc8bABV8wH3xqAg3rI633jLm88JPfjcofhKSV6ezW5aC6EG6G9v/P1zFR9sNl/DgGz4+rHvMA6S9GOqKZ6xbNF0LHJXw+2hC+zRLTNGC0Wri+O+5lSXi2gBYx0oV9uWCOir3zLUpW8d29ds4kpjlGMK36RyuOrHWCzunAxaRtfOt1LKSnUoPm24mbaP828vre4VPPeX0wsQBnp+QbYbcNUAX657VxwXnxlWO/p0gRenSqDRZupEeKGkc0ItZeDXhYwewQa0dLy8nI1qGsAOxmiK4EOSNCiy/0T9Djo0CKgVKUgPuDAn7//n/5AAQgC2bKHTs3X6VzdjrLFuEwxJzgUB2IvGtmPCvQoxRxAfS/TytvvwDdy2DGLKt6PpS1yl7fyVF04AAAAAAAAAAAAAAAAAABPBAC2kVeXIbilEBo5PBKpT0L+bD9kfP1Xy2t5c7D3kxcWQVXjYhP5JVVAlwCX2dIUc8eyP/+o4yBUryA+wP//v/+//6jQIuBUvmA+4MCAv/+//599TM6NGM7VZ6MKB0T/2GY3+uxcknN7NvZ/CBR0HjEua6ds8KvgznAqNz1Vz/iQsWzIkcRGDPaG64KAAAAAAAAAAAAAAAAAAAAAKbbGlXfc4ar2LPMnYDPduof3w6myZpYgOFpwXcPhvxZPS/hso09/cCpDLHljQSI5p2s5DUSo4yBUzSA+wP//v/+//6jQRmBU3GA+4MCf//+f/qXo0aiJ8NJgBRPDywwey6LHNt0Wji5TcrUhTbyB3I936eySHE6lFkRvtpXmyH7+u/ye6fkcmypAAAAAAAAAAAABfJ2NIjRDiKjxmVDCh4UNBBmcrMjxR3a0RgQmoAhl4rkL0DngMYkQIVQPo3AAv/AFQFPwi4Rj6JjGpN2mX28uVBUZUsHvFs2ew30uCjtVjqOqj+ynL37L1+6361lt5AYE0HI2yH4augIMYpL2uOdB8k4iZV86TAFjra8Cg3T2SWVP++gMX1PmKkK5VWeWecZw5cXzujNNTc8qms5ts3NNh0+w5pHSf6yBMixulVXrcqwYebwGRkXoQbRInQryoSZJFg2gsQTum1paaDztKNBF4FTrID7g7tS9RIZh2LpUeMC3eAOdxdRqOfjGLKeXlSAUHG9qPuOqsBT3R9gmhTsdR3do6a3f8oN1bMbWB7QzlFoULYl9Hz7EiprTDNuWM2Jg36Uaw4tAmwkhPX2FoxghHBMoZi5+RVmBz5qeklqusQFFm+2C+9Rz8TQUA44fXFzKkZ+RgOs2Rjfk/1b1XSI85RinNUnripimpSjAUvNC92MM8aLC9F9w/ZmOK3V6vhdldYNAJxHumiAk6KJ9acNXjFlOX37MkvnGgODYtt7KEYKiIZ2bKqR3VJO710lNFy+nrO4tx7aF5P9IADymqH4dSaB2eAp6NrvQf0JdMSUOOBeHL2JcUNUudeQ4g4AAg4+t36+1Uf//qOMgVPogPsD//7//v/+o0EugVQlgPuDApz//n/16rCzEFCpMdYdvpQuSNo2NGtEB7ZEr9zk0ppmbscuuF4wA685oLIcHiqL/LwxKQpdQ7TLG/8qjmaSGtj3IdA+JyLA510AAGHG9dtL+3GVFkWuiwzmWP04txdwvYHYT+QzlxufNYXoxOi3OZOmJNu01Pi4owkDVjHPFwQbsPVHxTDQs4EDADg0v8poERCE4OlO507hYuyQ5M3w9335DcgesqakUdNBeRHB608xFTl/XV/6KJt3AMPoisa1vdvxhhbrWq2zwJh3ztMiPkrrp4o8FgDE8eUkUVJG8eEI7SM7v2J84UoxgdFRvx96iWdhqc5dLticuERRH5BgiBExaOshec0MhSSd7hcAashcE6CDQBBAAAyd5AAABGfjQTAQEAI28qujjIFUYID7A//+//7//qOMgVScgPsD//7//v/+o4yBVNmA+wP//v/+//6jjIFVFID7A//+//7//qNAoYFVUID7gwIC//7//n3bzg+RvKQ6TcLAj/t+Dg01zEGSrRrLyRAeUDBjGc1w0WRkSfvCcJcYuz3ss+nzg4W7wLHYs9l8MpT81ghOVL14EPXZYgqflb3iDTS7NgyaKLRHQeOc4I2rH1VU50lGRk65SZhTxrquWoYt1UfUn7ZHJ6MAxrS0Isuv/9tuOBV/SMzdTaYkSKIAXx1Ed7x6i/6cGFIbo0HwgVWMgPuDsaR9eK5TlXbyooJ2AT0vRuiwMOXY5/kJvJrvE3ORKWu9OriMKF9zORuUvu0WfpnYEHd9F3Ep0PwSdsitRWVQS0Xr/OpmBIn+5di4rn2NwaC6Q0kiZnUDDvzRV8njuqDPVee76SuI1qlZQzeeG7LOuSaqShr1SH3iQeFkyaBsZ12x5a3OEmaPy/YWOc0gHIFqsb/9y0DMuTSVnpdp4eujcV2mb3VAPmZKjozgxhnmbfw6y+NeE1IAqPREjMLZNK+b+rpOAGeJ1iFEfSWvvMa5p7sW2M7UK+MyYPdfBbVs9Wh2PMA1Fgbuv63y4Nyg6N7k3EDayQmzX4Uht4TdVbsE24UQK0bNBh9q3uX79eGXwFpn60Ji8BF3GjEVp/QAoK8vaoKzUqlxyJVDjW60ZkIpAEnIRiCzGFORkOST9gsAxJsLkDjf9vX4U5FXebMl1p2A+8iYAQmlhHznpWDK+4chWsC4Rg5/9rTFUE1xRSU8IB2w7Bn/j1+dIDE60PHFAp2m3J2KFSZZTQ4+PWw4uEGkI4NGT+O6Lxxz0dmjpsuZFkRhTLnSTcGcZ35NbGfXeiC9uCB8wqHQyFeOP2j8wzo+wdrt6ZpajoTlnxej4M9ZdfZ7uCxO4rp1a3jhkCLCF68TDONJCNMRSNNRpaOMgVXIgPsD//7//v/+o0HagVYEgPuDf5Z/+UBr0hT/nGB8oGdNcVHG8yPwSIyBrg9cIa0tkL5Q/fhPCEEJqIlqMKyyomriyLxLc5E0xX2xAAAAAAA+6+8BL0WZ7ITazuMyU3NjGuMGcs+a6jue3uTsbR19xcD7TV4phZAakOh2u8TRCdVMncbi/7/U/U/CMBGFfH/Umg95fb8ET/sd8/0ky8Ltvh9q6WLY17yXNfH+0D//LBrrMY6obWLJIM6wdBax7AipS0G8qqpJndT73NARyGoHQ4+TrsSzUwxI7rxQKwNbL5BMUxJBZhZrHIJsehpcusdgul/WaRORZcSYZCU4VskFj5TimUe2xjvv3VGYGaVCRQlQ9alvioyqgpqgkyxluxzswvoq1+ha/Io9f+2z3/vigQ0dT7lA/ROg6adxmovcnHSFNhgUiCJg1Ec0l5XJmfob3PqD/W3KNVbVWMK9poG3Melfe9qSNUwjRAzkzIlszXn/R+axGYxQN5BacLauMM1w8K+v0qgvuMEI4xavEhd1cHmad6bM1Zb5AvEd6q9CXTLixryLm/1e2HFR2EGas8tLS/BhthQDpIjVF3jdifjaU1EukzTK52EOpCII0QgIzKJOTTc1LobZDB76+nWsUfR6xPwfl107o0FggVZBgPuDq1V9aR1Pw1Ds0bqK0NT7Z4xL7ffHKE80HZspmGLwRcmjltjR0krt69AkNGX/ht9IdPNdd7gt2GisUorEz2ar8TcMjO+byRUSRhR5vYx4EWZOxGdNX2axIoFQ8zpVn3mRrmQdVMsERrarT6RbPUbaJrwQE2rVbOM6yHDI18beLMkNN0YT/hxbNu2SXJbvFyBieWLBuJv4uDLNAoa+RCYwkRhpElf1c6NtY2kCxQh975B/K94B0NpbQG8LmA69eah1QCIWKA2revoME21bpy0wEkC7xf95lbCDkYk1578r1/DSG+0IDmnP97W8JVPAtjhKhMxLSiJorwepgdD8w4ew7se09Sd6GotvgQB9BqQXj3LPzl/aWU04gLPTw//yVLGrHf7GGXG0HY4jQ82U43bXL6TGbJvJw4OYunUdDoWd+00j5DpDaRRLqqafNSOlVaZQVBVzofojlPUFDaNBWYFWfID7g1OTfe4hVQunStluCaS4spZrxGQi97hM18GO5eWlKtQJwJUXQpjTI6lOhT0raEmr+9RMS/drI6KZlZDE4iXAxt5q4jy7d7FTYd+LDMqd8R6MoMJ/0XJ93JCToO9wDzsoHCsgYGoRaVpdX/yyUeI6i8Tl24gltjai3XpgJX2zhMk63dTaDKz7hmC2INgTdDh8iU5Mp9x+W28reF1jp8D5GPQnbElsjdAKUdD5yhd/z2C23Bcu6fpYO+1rKaVWzL7hjPkkWKI0czFvTt96o2OdZtRsoGvvtT+dHBU7weghmD3TuG1/2I18gi5/+Pq8wUt1Epi+SBl8yirQD7r21GIbbEH0DVtB71zJeHOyZ/5aUqTnUfiHMcXD29jQskrECuF1zUj8Q2ZEQTB0XuU2M0TzG8UagsEQK0zdAm9MngJjT1kBcuZ5YQAHEAAAALjwAPVkY4KOXqOMgVa4gPsD//7//v/+o4yBVvSA+wP//v/+//6jjIFXMID7A//+//7//qOMgVdsgPsD//7//v/+o4yBV6iA+wP//v/+//6jjIFX5ID7A//+//7//qOMgVgggPsD//7//v/+o4yBWFyA+wP//v/+//6jjIFYmID7A//+//7//qOMgVjUgPsD//7//v/+o4yBWRCA+wP//v/+//6jjIFZTID7A//+//7//qNAi4FZiID7gwIC//7//n/4e0nn+VbpSmlUf9/oZJkzVff83AdyZxyk4KBIjkLDI5cmTBtgHm47tDOdxeeF+aiJ7E7YNYtgJhHuy3ZgzPKKb7luEZATBsFLXhoSwRRTdPdlNsOPmUw9B3FFdYRRPQgmUeD3/dpOkmZKLITm91Yege3o8+96Y6eNeKM1AJWjQIyBWcSA+4OAAn3ahszf+HvypCfsRoOwr4RC1zW1hx9QAef+FSHgIEWL3i2oMYzE5CDMWxh2e7IQPz5yRViA6AKmXr+VvwlpVkcievniRG7ceak4cjS51BCdyJ7FWNZqJZAMUZAWldLRjd1DkjLsUt9Z10Pho+2xMOMcriDB5NvJfGji3BxmfRIn//7//qOMgVn/gPsD//7//v/+o4yBWjyA+wP//v/+//6jjIFaeID7A//+//7//qOMgVq0gPsD//7//v/+o0CLgVrxgPuDAgL//v/+ffUcgkwUUpcl/MxcFhWQkT8QmXxz/M70IqydTRv6MsDzpepo41bxwiY+HkrJkbgXYgwDgHQwI0HnYXQYI2rKJZ2PdbjWo037pHtXfLO4aC6cqEHDFamc2RuUS1MJ+kcQTieXpFARG8ex0QsUI09SAngyAP2dWsvOBoey9QVxeqOMgVssgPsD//7//v/+o0EIgVtogPuDAn///mHpANQXgb/+mwAAAAAASpUwGADRAH6Ki2ehvyKPVoNCAJpTjSDpPxR7RazWApjwAAAAAAAAAAAAAAAAAAAAAAAAAAAAAAAAAAAAAAAAAAAAAAAAAAAAAAAAAAAAAAAAAAAAAAAAAAAAAAAAAAAAAAAAAAAAAAAAACUdlZlGed5/9lptWFxRnUqgc2k3iNjrMOTqqqcGDnZfTz4NDQx0/5CPv6mAPKhUqQPFh39RK1+zNZhqICTk6CYufYbuVo2cBTLmeEykLjwr+bgaChIpz01b7+gKuMpHBOzfx7cm9vtSi5KD9Qg/qb+dyMb71QYEAQ8suPnYA1xWOmrS4SrYo4yBW6SA+wP//v/+//6jjIFb4YD7A//+//7//qNAi4FcHID7gwJ///599f5G/Ap541S7PUVPKjAyfG/SH30Iu5TaSrIRkvJqGOeeu3ZLz3TjCmBJp9w1Ej6wpAv2alR3szDrG1Er86MamfFMwWl1BTcuxn3cm3oBWfT2WMfhDIt0owvAWlkXHgwjVLFcnswkiOVQye11w33Io4H/DQYILPSazohfaOM4//6jjIFcWID7A//+//7//qNAi4FclID7gwIC//7//n/6wjR/BjVDCCmG/LGbUcrpZWMML1wL8HGRxqwH/Y68Eewz0RUR4MJJDSOLQui++60utcTFdsV+gI9ssGxkGNH5MPNu3OgejcuvKLz5obSfXZ0pxbbiv1UwFL0oBihOuKX3h14oA5E7FZ5fuFl242+A3+e+yhSYllKXLCSN4pOjjIFc0YD7A//+//7//qNB2IFdDID7g39/fd+u6Qcqyt3WaJfyD1JuCZv4BluDgLEFLi85E4cVjQez5dd46Q1hXJWpoxup9vtLSAG5EjGK0hf2LCrDKNKMbSmh5QL19I32kYFdiI8V1BLUGqlYYf2PN2b6hnRWs/F6AUPBXhxQmogsSJNt59OKbrWAqWJuA2gU+AFqn8m/EX/5AEfS5MTMZLigJ40QdthVuqF/reLgMfiqg3kDZTfikWRK0YSDwbQYHpRPI10W5IFXpRBRlzTCXGW6EPGoz2+6IwQOJtHgMYIp2q12rh7zwadxZoDqIoAJ5h7fJw0/4x4+MQe8KvkfcpvwBZUP//5AA4AEj8dGV+/SbhSIM3B4kbdkk7MCNhK3nhrD4TSDIhPaqPbOEOuMEnhX5EVzrcD6IIrQreLwHQuyFyYTGj57CqXm/XW7zyj6honM7uSRKYEWIjh6wePwaJWp7BXE4vVG9lzC4wY0F7M3qbPFQ4iH2lkUOdABtCEL3NAkpJmdimrnx1iggQ0uASxxtGlLPcAhN51xyyklIiHXAWwcVURkl3Lrcn/pCH5xo1508u7YhLgKw2od5+0lTtjz43LP1ZGAq1h8N5a7Zn1sadsuX2lNrlyjjNhydZ83kWqYmDc9x8CjQbOBXUiA+4Olh0Jq+7ZX+YrhMTdEEXAF9XNWXRcWkxVyoHLp6i5ukljdy2TB1lM+droUnRx49WiojaTyLAN/7G4jdLU3FA8CadqurvjgsOAmccbIw0BisihFGONGqDFmy2+dpYME/yr0mHug3tbG4bPd1Zm/BHIzoaqsn6mxviJ7s1ffi5BKZkg/ZP+BhYc3j9PUsHardU7Db0WXE2Rg4KQOrlb4AnB4M9KBS4BrRHuFVC4K6+ByeGfTn/iNeVoSDI+xwAAE/X7jDWNzNccn0rzGwzHBwk59ypcQ/+jl92oJP6xbkAHxMDJ5ljrSq6fGgDGbLBlShzty60PtQ7JKVr90azRHzs+CS628pnyaiXvxHt67dROPqlceTWpoRustspVognv2grOmDj0sucSsOQyWDyIOy332Dkio2oFC6XvLEtyhs2r4+CS0thExNLklGKTHWvqkfXJPQsZMQzNMqZQX4+AgAYWUlvVkEC2t3mmA85jelsNVGkQluDO13M6WXK5QeBPwv1tiexV9Hkx9oi0wgo/voB9BQdhkAADvt6eI+CA8QHEAAo/4AAAA7xndomDPsDmjQNmBXYSA+4NQAn/6n7Kd8a1Uy423n5V4H60kMXrE7Y5ZXugeYID+pGmHJSqKRPD+vQ3nRHWw0EKzdu954LvkhNdJJRLKc1AjGE6uJtK2XQKYNVZNUKTEaj+M//5v7YKgxKIzgEA/AsPTLzoTSJDseVk8H5BSn+ahLO3bfhpVG1RXAWrBIXm1fuu6CGko841aj/SBYP23de5vqzTfu4EGzhH3TbK1Wy2gnMUutlbz8jjp7E56abhORLHZQ4QZJOgjkBttXJz4IKaTXRr2n4wJtmpr9d7rGM8zI9BGo0H2gV3AgPuDhal/9rwCNjL1w4s2Ww1CAhIKSfuMMcIC8swCCb0jPLfEE5OCihDtzDu8E1Xel+DZC5ZCktw3NL9M4YkuXAUb3MOBZtM1lrDiNCUGfI//jwbJyXrJDZA2lU7AovFWzz3EnszyHwFFilwWTPpaOPO9P5u3MVQY09/RzHs2eWMVkv7MW28xrn93fX6Aqplqcp7ilXzXrhuKZ1ZeslMOkbM9Cztrp0l9Vgz7NAwHYRHBIijiv+JAoot9MfmeGvBW+mxtYrS+BW4vGfXFXwAPpHakB23qBZ9OuoK86prWDDA9lStcdsC7L1VWy7GIvjHdyFmBjYtbRGn0gDGZnevkT0mwENYN7vxD1kek0VOb72rby0wi3Xg4ggkjrbOKOCG+WNQz5eEQOKWY2ELv9mUksab/ZH3F9FwdgRqOFjIspZHWEe0Nug4LRuAPfiLkufUGigxblDY5RzMTcnPoihEKOQZSfNYl8m+6NBGAa7+hAXrCtVwfK4GHbyYRm2oxu1Xe+oO0EtwGVu5j4gZJZqHt+GKSTu6o1YmES9lrOF837EMDZPpUO2yWAZvtEdZoiReJbuoek5s9e4FuJFy0cWjfG5Pmk62KsbGV7kcOJvWdCKzzK9TX/DH/SGSow7ULb0m5ESoOpM0M6aBY7P8k3UUX5mZVt6NAm4Fd/ID7g48CfdzZQmgBTgA1/JsxLiYjhKHLT3iRP5Bq9zmx9fJII+gYC1jiR1SImq9+WaVWP6CCxt+THMAepqa8V18Rw35+s2VjBaieex2phcwJj+yKoNqTazLOAU9wy6sYxGEY/sALQ4kTys1HcCx/LEBv8w22PNVcmp4+0LYUCT9XzP6BcydhgdUOYHOWKjnra1EpMr///v/+o4yBXjmA+wP//v/+//6jjIFedID7A//+//7//qOMgV6wgPsD//7//v/+o0EJgV7sgPuDAon//n29ya4JEPjsaxBSZ28ck7EkX+6OEkqTe2dsJiTfcES7MPNA6cgryKdHmf/6FwPZ44eyzsD0ZmBoAnN9RwJMpkVc0xzoE47zrAkUTi3JWHPu1Zql/Yrs7WNuIPfzRwbxLQOUs4qushWYJKumm4Z8hJtWKTP1dpxuiuzgohDzYC2BT2y79smZ3I1Jffi5mYOKk+TkW5nmEpnWwPeH8NFEuFWMkvbOdnOU/8ugf67ArkBt3KmLnmLXeIT5gXq2Ydpqd6uSuVDHFiyoXnITm+idPEbS2K/qdeaafl2BKUd9PVXgplBrUjJE2X8STfM3HZdw8c3pLrdci7TXa219BPRss6NCBoFfKID7g8ylf8sFwktVWNoo/xEn11PuB5JVbUpKf1TovlcVyPuX0VepmTHVq2syuSkdG2g+W2RbAphvUxTy90KScsxfZI37ypMUp8255hr/6srgf0NPGAKWygqo9k4mLdrVII1B80uqiu//NDkw/ke3GR9cjsopF8xrGzMYBO4AQA6D9n4Y8F+ljzujSDqrgU2KYfSL88xvLTNggMVuwhtXhYxfAU2ETv4JCdAQzKMv+57xzj+rlw6+1M0q4Jedb1FwkxXmK22Y1L2HBO3sTJ/Rmlw9Q9C9Qr6JwN6VbqlauQh0LMglYAt8fr84aWPPwPlsFTIU8doPlJnYxYEIKBk0nfFP2x7fjDiGe9nCpW84lKqDJhxDZ/s9tPQO7GamsqpmtMYdTT4S62x1tEAQOaQqNkhZ0KLExLfVVlfjyJybNuJiVKxr8qOQOZu2AYbOT0PxFurXi7ntamrEZCynaDG3zZHKu0Tp81dakk35heaMsGUtM8YaUgR7fQkpXExHaiLTSrJyywRh1ETTkBqW65X31Gnp7tHuCv5wE7JGwz/cbVnO6VHLw3/SBMCUKXXLXjLRJFZ7mwFSgj6mxPgLB2rrLNInbZY6WvGnT5GkVbN9K4RaCxHFasCgo6x27bOuWjVWl7m9A9lcIGcX8PxG7eTByWCDehs5jH3i9OCNf6VmbkOqbrxpo0GGgV9kgPuDV6d9+m3AWUS238wCucKEM70Wxi7pivmM8HSr9xIq967PtsCCkb6aB8fz0HDn+zQPIUE16sERUXnVYHoce9jRx6BvVFlZGDbBU880QggJJgQdZYZHW95dLrN/7ZsbLQtyoYv4NzAShgftOCNlmc4lXpT5drZwjrMMMnl6S0t7dZ9JmsbpPw/u0XdjGhYFSZAEIlCGN9kCX/HIv4m6d/lL4jo8pFbKGRr4EvR9sGgHEI1Y46xrSVVqlI1W8FXeld5F+KlV+tPt6cCI/RsBFfgjHDjTztLfHc59uRyZAKKMtkomYXi4Hx4qdkZblgTkHHU8U+CL4P/RRS/yDogLVybnKHzMYj/H04QTaw2wPsXKqQtB5WHLU7S+4u81vklHmyisoAW4iHGUn6l1ZWf011As/E+E/wh1+n1SZpGlrUrP33/j+oevelTgXyeFoQl7p3qAo6OwLzQC44GA5VWmnD4Iqi8TAtOSINdCVDi2hV2InN//645+65qQ/WbeRC822N+jo0GHgV+ggPuDgH9bL1rnPvTBQNQ1Ze2ehIzX/ukVpIj8camcuV4NFKze+NUHnvmThw3Gg8mTfo6AnNUmTMCTf/pJ4dEhvcQ30gSK0zwo5PBa0EaJtyrUorIaUv8BWO0G9ruwSHZUxvcHSzfc5sSOZzsEWDfzN+kRay5hesOk5JvcLafRcJ2nWOI3eH1ml2D0lza/tgbviUQwgwYweLyzSLfrsIfeYn0cuRd+/+41jBcuu9U0BUtGvXedrR5L2Z39RP1CPIuzpHNceoleBKSXrT7AW6WGnoYdLyn6drs89Smqc3WsI3lYc2i/XLwLuzPye5nwL7P8S9ibtwomyJgSa5h6OXExBpyN0mJ/8vF2nvVhV5v6vvu0lfzrfKui5zOgFjXVdpR+K1DLgxFGL7P/gp5sz8feV6VKp5+o9rl2t0pXzs5rW0ozD4stfn4mUrOHUGzq+prbd68mRRvmAH9uiUIjAFUssiBhnNmRhsDf2vOTT5ESbUiP84ikOrbTtHRuB4kxFnrvmeFPKqNA14Ff3ID7g39OfXg1KdZaGarsTjWPPvSRwc3w+0wTWJuTFAtA6ylFbd2iYnyfxtMKA3rShbWm7MlY2UWPyLyU7qlRVZNDbsy+ebTzxN2NruTe7oylH6uu/I/oKKktG8xt+StLx4priOABa45ON4VlT3JdJgKUr/FcPupmwH5L/9WtOvMcoKVL9332B7deSQKt/ohPPGuzQrp/cudhiGv1FcBGGa8YGLGtJqUwCrIDzCCQ2kVxmqt29wLf1JWanSJ9SJfQi8rRwkeE9QyDUyqn8LM57w4RmP/+o0CLgWAZgPuDAgL//v/+f/z8kfCjNwnCP4nbwrUWjQ7WwtLElkMCG0ci1z6fPFKkTSjXHCOLm4Xg9rW8nVF0hpBIQOh2+PHoycKqIbWpfRbWVF43fWiC/Oxsjjszp9fK/naNYkaP2wjUxP0f1U6zYSIg5AVRaVavEGJ3s9h8aKm5/wHar59BkIIqiJM81aOMgWBVgPsD//7//v/+o4yBYJCA+wP//v/+//6jjIFgzID7A//+//7//qOMgWEIgPsD//7//v/+o4yBYUSA+wP//v/+//6jjIFhgID7A//+//7//qNBg4FhvID7A3/4+Ua6c8T3zxbqhV9RP58mucuWVwV0nfrfZP/ahf/kZCW6U7XhhZNbCM8ISRn1dF86xeP9QGtydpiwAAAAAAAAAAAAAAAAAAAANE966vxnGyyYCqjC57s1XgJeW0fAK4CgK+adY0oWLJ7iyl2qvGxCf0dwlwS4BK0FQKzkhYrf/Y2P0KCzyLKqd9o7Z5QctEOdwfCB/jBa8vEi6tfVQAKkOVP8QAQxroXc1Su05i7a5zkV43mExGWPMVpXLNQfdvs5KfSNh/KrFTe0Nnag1LTqtOqRoKzD6NFxlgu6yZ1Xh75D19NF/Pt8L1/v2L1Xqz2/NV9EW35lRBcubxxOf/a4EqHdRX/GRUdVI28lG2+Hgb6xViddYaTkl3mT+e3TUlZCKWOTf7atkmA8dT0mPJtsga2bdbprmmfjS4RFwC6pFUfJpfH47GqvMO7wHNiE4uaY8I7KCzxzsCBTfoSLLACegiIgL1wJNSPAAD/7SFzgAAAgAa/cUBRt6gn9aaOMgWH4gPsD//7//v/+o4yBYjSA+wP//v/+//6jjIFicYD7A//+//7//qOMgWKtgPsD//7//v/+o0HVgWLogPuDf6V93exNl6Eobun2eNWl49y7oPSGXT6Azc1CPBhow+RyZUteaFbg0UEJ8/wrTY0V216/EguKuBbSmWBt3WB8vDNTpm2C02/x7eiW+m873VXZr1Ga1HNRQzqouim4/wNGslkUetVaCujMsj6HImWqjfjn5PMDLHNGvstoDVmQva/SYDZ0o7Lh/V7tJDxqZvKsM+reUvAY69/UfdPPMNxiyC7007oJ7iwwg8p8E4fpKI5GO7RmL/kLUhiu6NlYsIbcTCc0ayPWFtQL+WbicRC3HkaWggrnzJek7B+kVa/NpydGo8f52JmSQQjbC+gTOpxDS9o37PykOMr/O4keAx11SDWYHKXLOJtlT3y/4PSweqCDYkLNyg6kfDrpiuMKdBGl/13nvFq8fWi8GKy6+dfVuOBMP/OT0qTIwMw+INfKJT/woEW1qAHaXxwkjVdYjQY7CH2Y773gi6cY9TuieGeFhSuAaSDQfVb+S7rP1qu/qEMx33xhV5gqh6exjXS5S6AvWZ2WmD9YEoofhlZXgqD8QWp0JTlB2TKyckjd+V/m1ZTh/ZRCM8JuflXzbH4IUjgGn9XgnPGzsqmgy2G2re40MgNCwfrgPx5nMW32HK9Jk6NBCoFjJID7g7BQfXxToCqJr+V7mhGpvcrE5ihIe9aUnRz4vbw28z1pygLpygcq7ZUUQyxSe0l4zYXDh4ni1oSjjJeTc4elqJvmWl5MSIp5x+6mIPH0P0x8/+7mGNU0Y5jwjZul9Fq7/rfmkff7n8lQA0b8VTYcO+TDsznN36L2zJ1dBCobUrjXmmO6qEKJkMbVkRbT7e+WDnWFYXJGpBd5jb5am8QJyeyL6gHm+7EIFxnB6NLAKBKSgDh/+QVi4OvUW/UzPZISJJehqcK0f2KiQDj+EqzbP6Ua1Imb1YxI/rzOoPmFS+EN3bZ6MtnNJJhufq0RkiP77gMXIAYf4IIwwe4wBSDjHknx/v/+o4yBY2CA+wP//v/+//6jQQiBY5yA+4N/f3/6aA7W+AP2g54ZwoZxaO+7xBtRqptJzszjy7s/rbgZTv5wsxTBSoH+oc4mByOwUaMqIhvkr7FbZw4AAAAAACGmkgoJgtTtmzeuzAcvZLrwMJQzlbs+KO7Gz9MGNHMzXpg1AakcR2kYjtQnDKA3G4wDAFQAjARgIxzE2/QnHCV94kaZq6R2Eg5PaErJtRpb6Y+Cd9o4HU4dATcbk7nzAphc3EVYzbOHvQrGFQ3E4D/ZIp9IUHvFd6dmKvGvn0w6w0HzB1o4cO/iuTdXX6pDLCyL8K+iT8p+5nLlq54w8sK2enuLWcu+xGFkRsYBmGX5h9Lo0OBNbc1rG1JOg7jl//6jjIFj2YD7A//+//7//qOMgWQVgPsD//7//v/+o4yBZFCA+wP//v/+//6jjIFkjID7A//+//7//qNAi4FkyID7gwIC//7//n3t03jsqeWSc0lfDeV62OeEHD9XnOdi81HTbYEjTGMlzczJ1XszdkzsY84pmWRoiXzP8usyNgfH4wPnZKE4koFH1GA2IMyxfSkNO7g0im0MijO63b+HK5NwDaMiqu7L4jt6mA2k0KV+v8sD4HJFeaLZP3i+iFUuz/0INN0Y6nqjQMCBZQSA+4O0An3f8iyjIgI2LjALKIUwtHCdw4f4lOfyKsHh8tZ7Rbbro69HzoH+qLJbXw2LNo0UfBdpnWGr+i93guYeQJj8yAD3xs+VBrbjwyd5TKyEKLGFc43vsSYyKjbOPRExXgEO2f1VgPZxQdcChJ1aFFAt+XFsyDh3m25u+62qEgCj5A75gmk8MjOr2IwH1dQPIl64XVDc3/Srzdh9VOUkAdebpfEV+Ebtcw7dagB9vslDzZBShZktv//+//6jQIuBZUCA+4MCf//+f/z8kfCjNwnCQPaJb5aGjQ7WwtLaZzfEdpFgYllKdDPoC5zgWl1f5d6NZbfd0x3rYyQzyJcLEzPj2JS+MXhiLayovG760QX52NvkdmdPr5X8S6GntAyaXrPx9QHaxdByrCorhkVh1dY+AOLctvJbm47UR3TbwFAEsIIqiJM81f/+o4yBZXyA+wP//v/+//6jjIFluID7A//+//7//qNBRoFl9ID7gwJ///59743i/gnocZbmkybY6Xc84YfGMY9/cW4wKuieusRzdDo8NzOWuPcZ3IiBqpi9MydJr7vIKp0pK+Oe+y3Zdinsx6jpnYGbALuOwXWdsX3bmYlXk/dUBhUtskkcE8/Y0JXPbjDV4PBZYpz2Nahsa0E5e8Tb4QcJU1T5Qayto6NRf/ZeXWoPTysvnlzYIm9ThNAG6Xqq1QAaTTpdBsLW4P4ruqrG1KTdLDvRh5otcOeQaVd4rPvhaY+CqCGAwI13xG/zZl1L6XRxBkz1gr0Q7AGw/0aWoKhTNo/apjdAAAAAAAAAAAAAHcsPA3LAvFi878AVrbG+dCw0fOCTaw7+MHfj8oRJ1Z0tmCjBNhabhuMtEIplqxVt3zOoJRxpq3B4qKWrUxVycgN5soB/SPYrALgzgeHqLMiSEdjNwUZlo4yBZjCA+wP//v/+//6jjIFmbID7A//+//7//qNAyYFmqID7gwIC//7//n14NSywgQPBRWYYHZTAThbMCjjE5bldwGAH5AxVKo6MKt5hFzQZaHfRRPFI0+uP3HKpg1bL7JkvFdUc7Myr8hFrEpGl7mffCB64S1I04wIfSJ+gGSJvLRGjAIW5ODh2DPSCpyTra63ycfCvK63BgfqRKl10zWtqNcqQgWWCpohvEbH1YSdpan4pcWOlBViFJFh/9GF1VGOXDZLtggcMaDXer69YDqV/qEBI7Watq7YfTFiCQYSXCHwUCbqWFaNBXIFm5ID7g7NQfW3cxPes+iA07/TQiufSZxQA9vI69H9Lzo+CXB1TUhcB/INaRBLk02jSH5vK4Uf6S4LHer129sIpUC1LI2hZ93p1AibZLzvxxvjCdtbY5lNDUyWf7WEE3fEAtHQwLubt7tJ6r0taziujA+CqqcRalckdrz9JbEjMXQhDyPSsl75B9NhNd6AeghHeudx6Rpr6aKl7c0MbuD/gpJ4OulyfBUROmUqO/YkbciSKrAAv4RxfNwDf0lZSFieSNVFtS1+qO9m9WWoloTJFlO2GbHinLENxjkacEn8hPX2Tob80O44WIP7CNnKWs/eTU5VZ8dauew36V6sfpyMB2eyp+Rw/4uzCAH/89tZGrb/3k0VllRoAAACVLKqCjlPlfkVcAsoQd58Tb3lNP5uXnQPLLI00/8TMo7FpULJgGrQlEZbtL0rCPmwgA+AAADwAAAAAAAHjEYeBwqOMgWcggPsD//7//v/+o4yBZ1yA+wP//v/+//6jjIFnmID7A//+//7//qOMgWfUgPsD//7//v/+o4yBaBCA+wP//v/+//6jjIFoTID7A//+//7//qOMgWiIgPsD//7//v/+o0E6gWjEgPuDAn///n/6sxTeM1mUwEojTjk1GEErkKIGAHOPR+Q+owGm8kdcjyhcBcBngynkN6fbd9a9e+QO/gojddQqWAAAAAALwwO6T59K2VCNPcmHvUTEMsn0zOVpEgzlmjzfMXBCszaasXBB0BpAgNSD8oB1TjR9vt7/v9UBUAIwEY/a1Sgg/Hl9dowu35jj6rpeKipr0aV7p56t1bQ3USbTtfphkW9xD1TYo5VyshqOjvUpcJ3RlswbjHrrbsfDDV2MK2aAK9jVF5jJeVzWOt/Mm7iKTtZC4Dsordoy6JeX4MAkC+3hZm/tigOXmDjOx4NCemGBwg9S4JNNxhwNAGfHy+7KHAI0e719RrQH4TWEM8BVhT48jbpa/AfYPBRMfX8certyEX1cXbCmUVyN+CghyAXDzLVA+omjQN6BaQCA+4OFT328WeIyiM30VqwA+on4ZX/rmqWNy2fI3PfQzaCVH/eM1XgRl8yqZ6V5+lz4EWTsZ1bYzrV9uF3F0SeNIfnsQVyMO6lt+bPI0Eke7kNb7ytQJiUvktAcvJm91PmwhrMopM6fHLvs458sIcclUF1BoBi37KIr+XK7R3K2tNwyRqrRiNav+5B9+9XlvdOsuj8+ZkYBO9JmMpAo77c6c5P4P3JGp8QvPo14Hb1nocS+ODGeNi7DEkSze/FsAm/tR/xrFps7gCDyBwPzwADwH/AAAYPULV2i//6jjIFpPID7A//+//7//qNBhoFpeID7g4Z5f/KReS/8F+PDRVUxVExldY0AgEIAjmapUVPPWibL4WxHptwKw9F/rJTmFCJs34+z04pUkOGEl1rwsgieHJg6IYBlF9DT99RVxk3GG9tjs1iLm2xJpxlQPeluF07A8V2lzL/Z9Kd6skuZx/WXsKcEz4SqwPDa1kbvfMLsMWqA+brTpZ9b0sV93hZP1TNyn8Uf3vIiU4/1HwMtqiQMVVVegz96GpRnS+NmD0t5EW6xDQcioWMDLBjJgAdbWmEVybG5k5kzZxRevi/ZCxjmM6nUexb6IbFvtG5hQ7U195bS/TDzoXQfYt9Y7x9ANfYQ6uN3WNLI+u/B96GuSp/uSixhf/vM+EK/bNgvAPEV7PP2xcP2jclqOaUOg8j2mbRmDYUcn9IxPtCOy1nKqO3gKonGqvviAf28bSZqetzKQAAAAAAAi0tSHDVHowOxW7hA/+qYRXt8FDWW9xsM87NfhP+SQvV9O3bitwGD8B60YD/gAAQA7xAA9wQACRLfTG0v3KNArIFptYD7gwIC//7//n/yv43dIPN/akFnaI5IHt/OcHWYo2X/7gWZ5iu5QjtuFxDdczqk5aQVuX7MzlS9cuhoZN40BRBmSKprnKnUhmuKgrK28xeNAAAAAAAAAAAAAAAAAAAAAAAYBEzpkJ43Zl5ZwduHu9rck//MDmUhU0Rl9cqBq+wl7Rt2WKe8vjimHbxNEJyaUZwyiJwyicAv844RjooU/oAEY5zHGePdZdGjQb6BafCA+4O2qH1xIFPlwDDXaoEVCBBS26TM7dThB0eY7OuCfxQsiDHJJYVaDERYG1/exbI5uhVLRrUjv5dZGxQXWdvWQzp8E7Ioh6CYP7yYLcvbeu1hKukZthGnAqDLJWggSLvdqJkN/dfBNmvs+4IvBUBVFKFm3M2uigECNDPJv+sewG1W/MRpgeuQ89ztzYI0QpDNivYqrCyomcunynsd7/lBPe65Kz4HSfQo7tEzJwgT7QA0vYafEctrmNM1fWiB9+L981eAhu5lCtX8/aRS+qfIPSEOaj+1EROH3TffMGBfg0r/TtmNlb2yMoIdc5s3Q+nXOZaCWCtk4bQYIbw2j9faAVGtAFBI20W0UszDYDt+FiJ1B20AP5NmLliTGUitWzbRKuup4UzSUTYOUsegAq6wUFA4FbuUBNni9hBaM2LPIJyVpqXichyhiXkSmDwmD+aCViRrmqJk2PuyOHpe35S5aeJ2b+1+uWlfeTMImlTut1oMTGyzNZZ5gmtTpFrjqLStXsAWt42n36sxnzlkzet1UyeVI17+eoM92B3hpFwGu5dmrNio0wG5f5IDkDVeGLh1ycI+k9wOYerleqPdgWosgPuDUQJ//IGsY/WdkFvgSckMAAxM+UXII6/odyW4FCQsemxmv32mZlf/6ceHu3bv0AvY2D9iSNlOZgnk4QJfK228K7FdjrsddiAeAeAAAAAA/dFRasv//v/+o4yBamiA+wP//v/+//6jQQmBaqSA+4MCn//+fb23CSY58R7uI0v8iAVgHpF8exzPKKPiuInasF0Gemd9cea9+uToMX+1u0/o9SvWdZzSGHtjTrGJ+07GQC6bZ2QDYH/l7Jx4nSobiYqvsNmDVpmjJjKyvNDIKeV3vBOcK3mVit//Uri+xtEXUuoMNCls24cKzhSfluseJYfVaQ+XIfKWdobOcq8gZAodbL2feUBFMfrgp0zUQ/l4tJkvf/bej+A5luCO+Zsr1+9RuoZ8iKQ/PXPChzZQ+pNKKPFT9SqtRjx7efk87+ZMSKC7zChxZeWiYUXDTdS4XKImXLAUhY2iuaNL+Ly8H9RP4RC1YonngbjcYBTAHdpCrwKNo0GsgWrggPuDicN9vLoEv5wB7HQa4VXBuhp8DumVvGJZBjesLavFqqkl/5BOyT/O7ENW8EzN1xkvdTcgPTi3JaNMokxrCdq3KGNTdQQxYKrUUrmQeHJTXuEvDpK3Nd8oji3WKMoHGymi0LlCIPIFS2vg5fqJRrz7nHYEpUofU8lQLv7QllAUHE1yyN8qpGQy67/2Sn2CFanvwkTEgrP5Gr+xNeas4sD9ukVRzIx8mXmtt5cRGwLL+le3eRxjgymFVNjxSN9XHZgau8GPGNHl5EJZajZJOGTIah6Azh7J19Dov39JMaWNMd6dpyw9idjKBtKDIHmsJUmRS09vluTrbZDRcTc5b6gWPvxE0RekGzLbjp3m5G0XkDqF+EBYDrvejjFFMWdFl2rbxb7q0ReNgf6PMfVLQ9xkGszBsBiuFfg0AKX2fzcXbKjY1WLiVIFydsj4AgLDYn/7zLO6JYk4SBmS8XoQkgAAAAAMrpN6fgHFmpiAoSjDgiC9Q/ZaMiqVZ4zAwrMe5QiZRbfMDkNCsOuJTpywUayKL8gAPYdKkPUkQAAAAAAAAAADbEt1Y0SjjIFrHID7A//+//7//qNBLYFrWID7gwJ///59741X0n/SYe6MakoV7ZCtHuvd8ubFSuxryHhmoYmJD+Gc0YcNVX+zIxrR186U0xSUex/LV/JNb0os2lbR5y+cyfeqOpB1CN8ipCkWBfkIicMWyqMpkoZnT0Dc3zap3ynXyBz6V4IOEkPa0+KMsuyFXfOtS4fB/XgDhsdf0oTbfWtESe13vKGhuWTUh3FFpwKw0Ij5OtzLVxsiTsixXlIYGKWNRNSo2kTq2fulJtNxqpcNNI4/4HzfwCPyJwcoaSlRLAIYSsA+rBmmi9l2IswAT4YyguFTbmHr7ZpXgXgRpYGDnCwNsgi4jyc4QTyjTCCCZzXHbRtDjxlFm/3txR9wQfAq5lxnghpv9Q75vr49p1gAT5uiZekelTulUoGDpLyxSdWjQUWBa5SA+4OSqVHrYyWdHsSOYKqq1K7anD+BpfOLTl6wof+Qm5hUEEBCh+ruxusV6y4Ohgjdhp9dZfJnvw003nCoRDM75XeX3G8zlW+hqYCsVjrFIIWutWNWyQRoB7nfAsBfSTMVEmSENoa/Uh2hjPn7slysk+3oxtKaryYbAJODVbEAue0uAvHN6nGk4NR4XFmIzHqWM4jXzDS9fdq1+xfPt+JU4UgC7MkUPq9pK5vDZdZfXgk3dZ1yiBLDdKkewxBpggpaUKXv2+wOxFXVAH8fgAWno6sokphZZvtE6hj4u4Lf3BFXZfFkklNWFa4OcAlbNIU7/g1cDum9mIevhOzbzafTT1A5BijRHy7GcXL914mY6kT1n6tCMjCSMqNQJdiJG8tRjDOyA8zjaGiMdeSJh85MTGYkFDk97ILi1MmBgu3/If/+o0IGgWvRgPuDs8p9v+RENA0DnqqKCnS3r8xs3C4bcAmOk4lCWw3pCyd1DHBLqVxlVzQgxlByQB5NreCanfGnXEIECWr2/J33/0jN8uxR1LpMfv8Tkehcktm1h9kyl7EkbsIzQMCjWgHngo/hGcldGKORpAdOcUcFf93pLCFhHMZEt9gqNd0T1CKeoZJgzz6AKqs0CwcbkPoBVOJq2/PfyYFq8XBBop8C93YF3dzEdQdHJRnyrIqZgc0UqXKD0X17dBaJqdI3soXx2GawEymIKb8kKdZZXk8Jro2XUA7zh8rE5RG6HBYLOT4Do2NO5wkoEQGKn26kw0ilkulk0QLM59fqcFnwtY8D0jeSH9CP+v7zOzFHYcgArAELfUFU6IazVMWO8bzF5+0eAQvjk0hv7zGeY7EctSryJqaeK5qgrwf8yUvZr4EdZz0SIFz9iWuJCzG3i/EdH+wC6pcktcNJS8L1ug7sbNdoo9NQG46RkV5qb9bNt4o3hgSlBuhAW5M3xXtvKKPdfaV93ohRrtRNsA7w/uX0tQlHswzPoZy+E05opKQVQ7QTWyF2QfHr9pI2ED6OL4Gkndp7NCKFTPSi2R6h5aD4RuNXxW8nZbe8NiclYBCxrRwdF7ccUEFZjR4f2Sf7qYlN+G6ak0vIvKkFjuzJg/Q1EK0RqwZlccCR3IcAfaXXO/rvmzuj/YFsDID7g3ECf/igTHNPj1W9mHxsoC3gZBH1zsYWPR5NGio/Yx78nSKnHUB2HTIYttslqtpHQsTvAEw0UGWdD+MW8KlVdcAN0HavZkXvlvqSK0EOedJyUbnKSRLKmuaU6Vop9AMoKgw6aof6ADiriSCJgSpQ/bT6fV3//v/+o4yBbEiA+wP//v/+//6jQYiBbISA+4MC0P/+fYns3ZRxz04LelNc7LAOMK08ByKBBzEOspI1CVnXndRDwt3qdPnI+2VkljOnEUCh4clB9S+8YLz2O9924hTLMGme41Wli0NJ1DB2o9BKxOo+EQygLOn4wVgQwJpsGAXzYZh64aVPtA1os3yZJAlzT0I1E5e7RFadMijJcHXm9sP+Qv9g4FruOh4iZ8J9ygV+NWZqJh6vt4TJF8A8ocN4YoGWNwJ70JhANjAsWslN4DhGp2B5ZMglLLhBQbeBFgO02up/S6j5p5llSlZirn9+9X11mKVKvd5I3plK3gLAZH95pCNFpK3EkOS97AIQWC+jrwx76HzVu6mhf/UuIb8n9bDQt2h7YvhFcCZaT5uXUu71Oczzdv7rLzltKPC8FTDyGoIrT/OYINmMHy7fFzuQAeQ2fj4qbJk5DtCJncsrzOAmyGKTeRHissBx22Q9/uMlZZqB8yoYjqVW+X9f7o4Ujwtf9YysqZn3ga0MvrEArWGgEGhHSgPnQmDnNdFlWKNBVYFswID7g1apffVQMPAhc7/bLgcixFHIEPfRgamZSAGRxXs+4hOdWeT8HPoYPdtdGKshER7oplSBTOS/8rqwXOg/zHl9YCqxT9pZf5ePYgeb+eed/t9vf5x4V0nszTJ9firV7eLKaSu2s2+SfE1zQFs1BkJ/6BM7jFs0WVjI2SJ3qlAaMmV0Im2atxVPNttUYelo1fsJCWhrIixvJsaSWrd/q+tOoLbrIJ+6goDRN0w+Ep+QwFW0xl8lTNUh+4NTlAcqpMxW8sxbFuwQGGA/2FrvXCyY39CnexAPIfLy4cu1G77hpmqV2uAzDAzaDaqzLXHP97h2C6G2Q8wAEjOVhfrNMvZzc1IPffVAavP+JX3DyAL1ATO7p6tRQQKtVxRTeFH1ZT9eL7+Ht083nPmSZabsE8k6Bfd0bPMbrSSQPuJ8n+AnzZCrWnlnnvcwfUOIASfj+crHo4yBbPyA+wP//v/+//6jQIuBbTmA+4MCAv/+//599TQvQjZM2bNI95xG708UcjKGHuGY0EJzSxdHdRmWcyh+SXrHd0R8zZCzrVy5nUvm6vR6mvDg79xSXCdCzkfartTxxOpE/S6yFyHUWe1yoG2dVSrpBWKfBkmKcqpGYKvq5WhW8Gbh2VCKS28EcMFyNvC0uNdFJQ0fxNwWchNno0EIgW10gPuDfwJ99W6H3LyWvjBiB/V/iWiccBIrOzqQtH2MpuDeKQWzfLIAmDmL3sE0zve3ppkEbk5Pcvk/uAFAjhiew8oIuaE6FC8Efvs5qjNk95O4jgnt4Lkg9lnIs0D5Ice/LiFrH+Gvd2TP1ubpuRpmmgzDtJK7QClRZPQbeV+2YlD2wSI8//59368o9AKXI1A3Zfeah+AozWcfQX3XKW6WkdfCbt0Jje4l7tbf6L7dI3hLGpQAstC7V/tMJbyPs0tI1RSTNtGZeGiDPJ0I9HZ9DbxFHkoy/PEUXGQP7koUIKhTYk6TKd4Weer6y0M3PWqvaEuEvt6kRZOrFmU6oBV1Enq9nPTZo0CLgW2wgPuDfwJ/+JVv464RCiWWW01f5rhjv+4wCzun/Huo2HNc4WYasFavqBe4NesnkHr6n5ik17qwWQcY2HvLEe2DHKM0cMQhehx0HyKFYo8ywq8h9KtrFc1xJoX56SncsGvHOSSz8usNCoPeA5APhyAfHPeJI+b73AZZOZtwPb/tAP/RNu+F//7//qOMgW3sgPsD//7//v/+o4yBbimA+wP//v/+//6jjIFuZID7A//+//7//qNBNIFuoID7gwKY//592omMJvl6UxNp2AfjXWMfarBT+7dKshjT5v6bibWwdFqRecWHB65iAL+DXTu+qIBw8Evor3NNQygId+swx5bktvfldUWsunhQysanLflnuI7e/g4rVme6BB070Qvn5RsvO5Aa1FmbGtj3Gj4EKFdjhicmRZJSHDzOz7Idasiyczu4hcXslQGrPb+yGGTKBC38Gk7msrL9+1Cm5hdGqZI5RJRLFh5jxGFxrHbfe7EbNdsamKJTITT7FSf4p6BmkUJi7xx4lNwoyUlPndMQnyGr+HwpaxMh2GG2QYWq3G1NECzf5E2I1V6VMUPywz/ZGsdQ6MDICHib60UCKmZFfTc2LMDEygRNcui+YkU0RrR5Wj8m1lC/jLydbZpdGGcPSff9s9jpwonDATwbo0EOgW7cgPuDsFR93MqAWsSpzA0MAZQB455DeoBa75VMFXVHIgQ9QaGSIIjrhlTRVLitsqTTip0K40dOUs+dFcxE+ssTOHXTUPPIkYcJXhmbTIWuF98hH7fsS+bxw2Y/4Z/XfoXK6AtGlKfc6GjBtvVgLGjMfpGDLoCZhHp3c/9TbBe2PDlsdjVtq6bAv+wx3pkIngAUt+wFExfRb2yllvMl9uMw2E7xaWooBkKgske5J9hf4VfZkZnURn35HQedS6wOYFZ8MskFHYZ/aorcz3RnnJACjyHZDylr9FHwtRy9XGj9tY2quaR/g+37m+VEbr83VebeGM94oy0vVKRdxYuYEIZbcbi/+/9LLqKx0P/+o0EJgW8YgPuDqlV9trp89rOwntgT2tkmWUn2lu7Mui01VexRp2BT4GF6733VqGvBF/fTv9Go1VQJ3j7sox5v8K+QGaB+Jel1icN91A8CksynQmHiXo0cjws2KKlvSt7oEPCZDwcpIilRAcLLxewsudRwitkxRA8OwNH4AZE3ceym5QffF4PYg6+9mDp/kY/8N9NJtpFbQE6xf4YqogJSbdYL9n/4rxKXpS4+3s2GsEkUmMU74335NnzxV+UwgnWQOYZv3Ibej67z3fHjj+YvunNibQtQcX9YZEvBpt2a1qWpPEhUAJi6c9IjaI0a5gYgenBYIKcCTphu2BZZIGGCH3Fx0gALWq9ED+f//qNBg4FvVID7A3/7zM/wPK3t/iY8W/QvhGTXH1Sk4Swa0yMdT2ua5SRsFdSsY6L2BdnM4lUaiIZG1+ylcDjLnmwAAAAAAAkXUDZZewf64vkoZGn3LY1PGks5ab3VHdLJdMymAswY0cTMjil+nO6AgOFOKjGFTjP9vuMAwBT9T8IuEYhIFMOzJd599Rx/pSYUmurKuP3ezFlLrlwuSQDPLcndHVXBTu9YN2p6GphRP4bMFbu49eH6mwSSWiLfKWI1kjE81XELlV56Qv1s0vKy2LiJYvYMuBNmcdNc6HkbS+3CWEODOitHVabAmUPLNLZRT2gnLjAiRZe2jfIHkH6eRak+RN3Gj6MGYekA1BiIvAMh6AAAAABMrkfQAHUNYd1VomkC/0WSwW2d45T16CBIi2lWXF7qyIAAAAAAAAAAAAAAAAAAAAAAAAAAAAAAAAAAAAAAAAAAAAAAAAAAAAAAAAAAAAAAAAAAAAAAAAAAAAAAAAAAAAAAAAAAAAAAAAABryjUZozy/KOMgW+QgPsD//7//v/+o4yBb8yA+wP//v/+//6jjIFwCYD7A//+//7//qOMgXBEgPsD//7//v/+o0CLgXCAgPuDAgL//v/+f/t9GLwkqvT7GVd5yBteovLDFCU3wYXE65WrdG2OErVzi8TRYwiin9jf38fc2pNARdczBcXdgxAOpfWWiHAAAAAAC+yvttIJ69lYVSxYo9iRqDZgAY9FKdpnKjkupfrTAKXyTC8dhePzugPCDxAgQAjFO8U7wchUA2Nzuu+YtKNBYYFwvID7g5q9QCQ4j+vjbFnopfM/xTU04BMQAaGUK/0fM4aZ223RdKhocI38+xMxp8pb0duHFFul2UyTXFtVrQ+GT0c1sI6m0f+LTu76bYITaYMN1PwMUaFGWpau+JnG+/hO7/pyD1r05XcunU34+efCSR5XSGO5zDr5gblPxpu2luTLrwxWQaECkPOb6pOA/+vorfmXkbSPVFwhaKfCrNLps3k3NjKH+VOgfUZCjUq9uD1iPvDoZM2mbNMJD6yX72X77RMyHCjO95O7tgaiCXwQGw6Me3FtA3hj9k+5QiJzck7Wur9+/StlQqNr0CkN8VhN1PLZr2mxHh/QUxGGFP0iJlmyMq9AGI5FNup+4nIVmYQy05LLul2xLnEKpRpwAB3qIlRI1poZwneP1PSKCwmNzeB4+8vEd30lprFBBl0+zUC+dJ7c68rEb8DhJBgo1QBp10+29s1K0RnL+P5iQP/+o0CLgXD4gPuDAgL//v/+f/kmZvNA1GpQyWoeO4lmgH0vuJjC+YXDNpXJl2OoNlMKja4TWq6gjOg8I38A9WS3svvP+2bfrFmYCWGxOJbUKxwx85AfZUfivlCBEOfaeArVXzN+LNF8x0m+u1/+M4+UEPaEUwSOSEoBh4sCx9Op3cNwKMRmo11q/c7IZk00oaNBp4FxNYD7g39/f/k3FOPMb6ZNVxRLlE/9lsiinfEsqi+uxvewPbOfsLv4vhyaRMkBspCGPsKRILBqT/n+LWM+AZycG8772qlXkDFW7/3yH+zT6798NRqZ7Jy9QVSCNdh5i6D5qC8IOIhxdB8m3MXFjTvYyXykkiTqd2jpCjCjZjqNjl9gQe+pAH307jlrZrFHWmlz4JvN8B1DosFgvpU2srsQ7ybDBi54iXIre40GJnAlV1kj1QR5Hm7lpzI/scVy2j37ig2OCN8G8d11Qs/tW1yj64zLdS5BIoYy52eZFeAHNFuS2RO9wKHKq4yVd3kYiugrshUygr38x98FD6k9wQKSTa7z3gV9vvZqBrjxxyG6YqqBfTAjHHCsV6P7NVcYYpcR0U6CjWs9lIWc9zVhA/iQys+Alv36gWcTZxdpwd+VOrGxoIq5lZKsduAfRFDJ8oTclIrabwmoBJUk6L0TL+jbL8ZTKAD6XLCFPdXlFXoSAtDf5xuF1gaA7obUByzjiTnnvZl9/mBwVr38ZLPYvanLs7W1e8e/qk15p7xdCI3kHgUPrL30/KOMgXFwgPsD//7//v/+o0CLgXGsgPuDAn///n35FG/3le5MDaiGEOmJ4NZEbZK21o47HLzMmARyhB/Jpx5eUkEGHB7MzcLxzExEgTPp6GPREJX8FTuyu56YzxpeA8sQgx0NaxC4v1Dnxxm5qCRGs0xtKcWdYsj2Bms8ZhPtvK0vXtsewJJ9SSw1d4RHQ2UZy+MjLHGQH2NzA33//qOMgXHogPsD//7//v/+o0CmgXIkgPuDAgL//v/+fb8ov4xHOFbZAT/VPfGpkAK76IKeCFbnSe0q27zLcthGzPYPl+6ACrAt6Km+2jVfubkLmXcY7/s/WoOtfeAh+H+jqPJRk6NAbZPoTQz3EVNQkIiQPy7yKIT3Hlve/7qx/Y87z4D+RPBJioyflk4NsjLp4LgGymW/ItyV7bkZquw1H5bn8uWAXJ3t7IWDn0v7G1zX6zP7qYcwMKNAjIFyYID7gwIC//7//n3fKDAGZSFw1MyM9URZibQYCanFcgdy8tsEqDJDIT64cwmBOwcCsCDW6TX6ikFt5jacx4gV6HDQaQypsgi8VgfbVBHMGZ6k7nyUlyTu2MQVafaSVc0EToikFHIoni8ZbnKip/4vEuOdvJXV7vSW26lQOMugmhDJSGDptuIPZHw6o0IFgXKcgPuDyKp9gmQ2ZHLJ6paL5tSpziUsfpSYEQ53zI7QcM0LVjC5I+SCD20j1mxNGzesm6vzFNAdD6Ip9FX3HHl9+iSoGRdPTLNkovrYXBiQdMsD5IwoRHSLzANS0Kkp/pufFLoP9pZio6dg8JrZVHBYaTXEC0Txap28ZoIQ0zZ4U70HiF71YOnU2kU4rJdmxSZq7hHuyp+83lbizx+QELnvJUm3hTjI5v7tk08Z9Mno6GaU/wFiNiExiWKXk/B9Iybq1lTYRB75nswRfQ2Xjnzk/gD2TJ1VGOS0S9dwfu7JuLnlRb7vSaxS5e+3wuv2xAWqk6Y+S/DnLqVVtOnnUaxhOvIJoWZWum27j4T2m+5g5VhbB0JmCHIXsxhjgutAWHF3YGZK+b9tAA5gZIaCWJ+nENrXfAYccVcvZzFgv1wMveMqTg8wATAJ+Ixiu4GlcNv44R7MThFOV747/ES8ZA1O3EXwMj10IM9ZyjIrH37nDlZ6X2DMwZvbe376ZOsYjE3vUdYys7P/h1gST9EoFJ2SGvYKfhgVm5IOipPvkZ4ppYKRxm07qWdtUMe0H7YajwoGDK9QmgcJaUJeUS+2gRVbfloF6fZZgmArHZd+lp67wNRF7YsscuIfiOKvfnhQExP36CnuiOMlQAD+RuEJzfLquBglZ60B6JrH7MGpCzWoL+UY7qNBh4Fy2YD7g3dpffVutVINI/foXXpO1Y8W+SxfbDGE0tvua+Z5Ie+j6sK5WKkUpS4+KjrMJVR1LJuXMjVbBijbCLPyK5KpCxZ8/heEG7pX/yWs3U4ep103xJC8pDUNHMcWJyEvIz/dBY2eFAPfnKEgKmyAb7axMfF9m+06kdSH5s197lhzvxOwH/gDscNLitkQ+2lIibtmQcEGTMznq09jPJXxRIVBtADk2zHk9Wgs17wdvKrb9Wr7hcAnn66H7hKHYkKSoH8dBO61mNwBKcm3oId6lbQ6D3iC47Ylw2RFY44jInaOFD0uMEZ/7rP9spzTKXxR0H8J8HQqTPQ9hrGl5/7TqL50ItH13Fxk409h3d1iwShOr5GriYjtXfICVc80rXkJVlDEg6CyYMbrK50yRLsISh1alOiXuSs13jwAW2H0ThnicGTGjPmRl+rSQVjhfviRoYzn4HUL3E9WGdevk4WS3lyekHMH434MtCEv5h7kQ8Ow/jX+JFCzwcqf/WGdvFoKDLhZZR6jQYaBcxSA+4N/gHupIfi2DTRFnH0ZQG48O+9DJn2EdxGfa3eN7fB5/bp8elYUIMO6GhQF2do3suT7djblD3wBp9HbnVPbkqa8czuxTHKteqmiJ8ZGggfSiSW679eXt9oHRQqARAj5oBTmafd4EDwBtc05hFupVa1gYiOyeRLrMA/hIE0jq2Sjr7h9eBtw4E0qv3GE+Gvg6RT6pASI1oMikinsuDb78tytIFc63JGxsRXaS0QJD/3yT5u80DzmzT3WFEmilFON7ojGAKerXm+OdybNmV8u84fghIKsPsj1KuzJLuSK+vhDFO58HeJKGNx8ZDO4xPbvEl+1tSjrJzFreNFbwmL+0HOfan1vRXCuyCLtZbIiZajUesVrSiNvU4h7BZn5Jgp9ye1EHrbtpr9jFMmvZOBhHDky0pemi3+LB9Cm5vMVIS8rlZiDBfvyuo8mL6IoIRtKJa/6cUCkTM8kLPPIi7JkIbrV2ETEho9nxuizN9UDK+qtXuD1sCQCPpluKzXC8GuRXCqjQYeBc1CA+4OAf1O9xEQrBAEaHCKFkFE631UUdcJSjarDmryt416xJ2G8vaJsCzLfgYh2WpG1oK9U2nUb5M21v2rnpzfsh/p5ZSnTHjHEALHx4enHanxcvYZknxU2uKKbe5MXyQVXPvO5wAFXYSSOnxLEjTx3cE9luL9BYsB4/4vCljiB8DCXqNuhWVGNndRnAyIfeG7Rq78R86UDc5mEcE4hmOpzxoZcQgLObgHHF+WGaJdt/MXRws9ke/mCz7T/ZlsCeTFqF/bIkamBoQfAM6+GwIvYPaVRJ5IOWiiBQEKAoJPSsbpgYIX+TsqSdY3g93Jtw/lc3Xsw9j4E38tkMkkvRnZGkMpUVn1uNWbKSjDe0I/z5NGsShl2IV0g9NGpdwcznPiMZvgGkQGi3yVtSKTlWnC+WcWWBmb1KK/Hmy7DXs9vkMpqnK7H7NmgYg2V0QHyiaw9ndScBgi+wXYI2Zuqt9W1I30GsmmHYGKeDPlfHeOjy/mAQQHlFxL28SWqIOkIiGPM48Jvo9mBc42A+4NNAn34wsG8g1RA7/cCF297yWiAGVb8iIxRNYMZC95i0t5NE77hOQWKpdbxUDc/+P8gJpg3MVWWo3jOopbxuuNPoh8gTJRv84Mct24GFG9T//7//qNBCIFzyID7gwJ///597eRRN7++kCrAbfY1Pd+gwS7jGPAAR3uiHB+Xw7Iy4B9PKHUFKXdGpl3n50dOXP+LXp2xw6UY0dLI+B4A4I5PQ8ttgQtM3Y5zi2hSdNBwqWvRjag/VB8bLgePTpMuO5jp2dMsM6tk/soLo+gMcIdi6L12w7n0rBG3Ni/iYHm7YeAlzi/jvJ8jsPJ+J52f9ueul8sCi5FusJ/hd9uQk5w0gubM5b1UrEcbNzGMWEJuQAEXIrbAkaABZfCuCr+y5DhtubTk8fYyP1RSdjr51XxB+pnEFEWOVDgvpEnDJ2cQKfTOriorDRVtf5+/zzt6d31/47zMjycIOCUP+DzxMaOMgXQFgPsD//7//v/+o4yBdEGA+wP//v/+//6jQN6BdH2A+4MCAv/+//59Ccxg2GBftv3yjzqJDvfoW7mUPFaxTxm8iiJ+IqFP+L+skXJqrtBpX5OttT475IHgVpxk9iec6d5r9+cwivDSKh8RiegIot5ox65103JT5x0dHLxxojWTEjwRNgtRHLiaMxEQ2bWQiVfv170KKpmvCVqYEi93A+ZVuVdyJUjzP0ClrGtQYNfqADdzIbL9mZyg44OQoZEhMtDE4II84v8YTH1k7F2ZjWYVCVZvvRRBpc0bphGsnx4DL42Y7hzz+S2ZCDo6CSxArsKKRvrkuofYV1ujQTaBdLiA+4OmhmA1mXE7/gZEZ5g3lU12Lchwg3nmecvBQV2BloFf9Pu3pIV4J1gvDaZqO253eV16Q9BM2FwwYoJAUkyAxljDgkurVRhQVLjGcfwjOHNtH6Q6tGI1YiTfN9ptdssOV2C6m3VEDpM0wM81QYw6Uut2vR5rpfaV811Pl0+oN8U+Vk27zzgf86n04W46yYyJGiHcj0AZsAQkwKKNOSfQxue6/vziMi+gZYJ93ppQ5lAOYo1Hd/EeMiWIBK0c5XczTdKwZmTNTEH7JB73fAWqiw/AdSSEx+k626DZVvp4ZodS78TAilcoqqut5K/FfoqBHFLNFIwp228UOZreZqH8wvQzkcOMHvQW790XdvGg+sFZ04RW2MzGUbi45yN/JcAhAZZvJ/PpnJSNRolvvkntOf/+o4yBdPSA+wP//v/+//4=",
   "estimated_stimulus_onset": 18,
